Timestamp,GyroX,GyroY,GyroZ,AccX,AccY,AccZ
12:01.4,0.010116112,-0.045149527,-0.118538924,0.103805341,-0.060882442,-0.993637085
12:01.4,0.027050354,-0.061343674,-0.012030859,0.108535565,-0.06480395,-1.011352539
12:01.4,0.085644215,0.009127871,-0.030748423,0.055801146,-0.062179409,-0.994659483
12:01.4,0.074828997,-0.032552153,-0.048399385,0.095077246,-0.063476391,-0.994064331
12:01.5,0.050251197,-0.034860048,-0.068746865,0.090285949,-0.060790814,-1.000671446
12:01.5,0.007355489,-0.050406825,-0.067215085,0.084975861,-0.072936781,-1.002594054
12:01.5,-0.017720692,-0.035181358,-0.067842662,0.076995485,-0.073241942,-0.999130249
12:01.5,-0.031987183,-0.093639337,0.012518892,0.117934808,-0.097610235,-1.005706847
12:01.5,0.042046145,-0.063398033,0.008330472,0.078322977,-0.052810401,-0.990982115
12:01.5,0.06236428,-0.08027254,-0.027970675,0.086623751,-0.055236526,-0.983749449
12:01.5,0.001124051,-0.015073028,-0.043336585,0.079085886,-0.063354187,-0.994277954
12:01.5,-0.035140868,-0.007535483,-0.062154084,0.078551814,-0.061019577,-0.993026793
12:01.5,-0.015786961,-0.019486953,-0.084816515,0.084777378,-0.056396157,-0.98059088
12:01.5,0.000861883,-0.007415685,-0.056931686,0.078902729,-0.066039696,-0.984771788
12:01.5,0.018857827,-0.00560376,-0.028197244,0.074386105,-0.067290902,-1.000595152
12:01.5,0.002222165,-0.000556003,-0.035653297,0.074080929,-0.060805924,-0.989654541
12:01.6,-0.020033309,-0.014033508,-0.036446854,0.080947362,-0.066405885,-0.978866637
12:01.6,-0.009870789,-0.011481224,-0.061147407,0.066817723,-0.060989007,-0.999099791
12:01.6,-0.018225268,-0.004490602,-0.066989981,0.06553597,-0.060805894,-1.002319396
12:01.6,-0.013551871,-0.001966103,-0.059620615,0.07092233,-0.074706659,-0.986557066
12:01.6,0.020020368,-0.0099373,-0.06527371,0.07086125,-0.061050013,-1.002227843
12:01.6,-0.005866685,-0.005099489,-0.065686494,0.07168524,-0.069015093,-1.002533019
12:01.6,-0.033879083,-0.030132849,-0.054740109,0.079833418,-0.065505564,-0.995575011
12:01.6,-0.024129383,-0.048543502,-0.060826428,0.071425788,-0.062408,-0.997772276
12:01.6,-0.031288922,-0.040547807,-0.065603077,0.068404533,-0.05853226,-0.997970641
12:01.6,-0.052153163,-0.022115134,-0.060586013,0.069259003,-0.073134899,-0.983932555
12:01.6,-0.031554554,-0.013908251,-0.069457136,0.072402291,-0.061797615,-0.995407164
12:01.6,0.01404364,-0.029656939,-0.068107709,0.076186456,-0.051284298,-1.011550963
12:01.7,0.026465412,-0.03206626,-0.061940294,0.078246385,-0.056670628,-1.001220763
12:01.7,0.007306304,-0.027439814,-0.052786082,0.077636033,-0.064528901,-0.990844786
12:01.7,-0.029183736,-0.012351587,-0.055351768,0.073577181,-0.062819906,-0.995819151
12:01.7,-0.028440436,-0.013638561,-0.045952871,0.079650164,-0.059432454,-1.000595152
12:01.7,-0.014502866,-0.013792315,-0.028231531,0.077773333,-0.059920736,-0.994659483
12:01.7,0.012334924,-0.00603457,-0.022177702,0.078658327,-0.059935983,-0.99003607
12:01.7,0.018529098,0.009838447,-0.008698979,0.077147715,-0.06164496,-0.996704161
12:01.7,0.015579004,0.007826205,0.001085143,0.079787478,-0.060195372,-0.99935919
12:01.7,-7.47E-05,0.002658032,0.015567612,0.075820185,-0.064681455,-0.997390807
12:01.7,0.010708133,0.003876339,0.010768463,0.071456172,-0.065703791,-0.9926911
12:01.7,0.012440846,-0.006377008,0.008017417,0.07345508,-0.057753973,-0.99545294
12:01.7,0.016302574,-0.003236697,0.016405709,0.067153208,-0.061110899,-0.993637145
12:01.8,0.002290854,-0.002516447,0.023714554,0.070403315,-0.05990544,-0.99142462
12:01.8,-0.005378353,-0.003602394,0.010171714,0.071349353,-0.054641157,-0.989608824
12:01.8,-0.006485481,0.014871289,0.00280428,0.065764643,-0.056273852,-0.992965758
12:01.8,0.005165562,0.007293175,-0.000444245,0.073729709,-0.051680941,-0.993637145
12:01.8,0.022806967,-0.002726658,-0.012994325,0.069670893,-0.051925093,-0.997894347
12:01.8,0.006013922,-0.008387872,-0.025331352,0.067839839,-0.05700627,-1.000701964
12:01.8,-0.019344974,-0.007002363,-0.041593213,0.064055659,-0.061599169,-0.989120543
12:01.8,-0.040275197,0.001278781,-0.052339531,0.066664889,-0.057876021,-0.989151061
12:01.8,-0.03730689,0.004135864,-0.044592068,0.071852878,-0.05412237,-0.982772887
12:01.8,-0.024661126,0.015033652,-0.03368875,0.077193446,-0.050078783,-0.972137511
12:01.8,-0.050959833,0.013214048,-0.032270018,0.09570235,-0.037276667,-0.957107604
12:01.8,-0.130584985,0.031644054,0.063492395,0.135207348,-0.057204649,-0.90296942
12:01.9,-0.5932042,-0.255864412,-0.597024322,0.204543285,-0.099364743,-0.834610045
12:01.9,-1.306124449,0.063552983,0.656533241,0.269972958,-0.117126213,-0.718566895
12:01.9,-2.239703655,0.232658908,0.919646204,0.38076701,-0.239151146,-0.697113097
12:01.9,-3.10157156,0.155695736,1.445669532,0.507460661,-0.071305059,-0.546249449
12:01.9,-3.924969912,0.210439235,2.021089792,0.501982659,0.129469275,-0.38797015
12:01.9,-4.965040684,0.186597809,2.757202864,0.422224782,0.265424132,-0.282196522
12:01.9,-5.417167664,0.490204185,3.328061581,0.306181282,0.540950954,-0.236741066
12:01.9,-3.460237265,0.551874876,3.689015627,0.379438192,0.940928817,-0.359452903
12:01.9,-2.829157352,1.330255985,4.031514645,0.249341041,0.943781912,-0.475084424
12:01.9,-4.071482182,1.471903801,4.331011295,0.360546112,0.499216735,-0.542925775
12:01.9,-5.183758259,1.471847653,4.64230299,0.477320731,0.422586977,-0.313144505
12:01.9,-6.759485245,1.20346272,4.94171524,0.628641188,0.341532171,-0.262608558
12:02.0,-7.773618698,-0.75906986,4.430984974,1.037484288,0.553537905,-0.1971955
12:02.0,-7.615178585,-3.024936914,4.10794735,1.152595818,0.924601376,-0.553214431
12:02.0,-5.945951939,-4.91782093,3.022623539,1.066825986,1.313670397,-1.033652797
12:02.0,-6.059957981,-4.925476551,1.539915562,0.800285459,1.347346693,-1.481436744
12:02.0,-5.234511375,-5.580915928,0.396768957,1.287239552,1.975962877,-2.367132634
12:02.0,-4.725435734,-4.324587345,-1.49303627,1.444375217,2.301630914,-2.059667677
12:02.0,-2.65984273,-4.910782814,-2.573868036,2.873163164,2.886850417,-1.575338185
12:02.0,-1.941759586,-4.977544785,-3.504519701,2.787852347,2.642846465,-1.010182679
12:02.0,-2.127929926,-4.02619648,-4.483155251,2.013118953,1.921135306,-0.650609374
12:02.0,-0.765152514,-3.095439672,-5.466625214,1.552244157,1.537254393,-0.182912141
12:02.0,0.889778614,-2.383222818,-6.464651585,1.147079196,1.381858706,-0.251515508
12:02.0,1.245909929,-1.816160917,-6.923260212,1.271852121,1.01488471,-0.144734502
12:02.1,1.540194511,-0.86550796,-7.949139118,1.532657325,1.304268181,0.149149925
12:02.1,1.607165813,-2.67326498,-7.959647179,2.440617979,1.768350363,-0.149357706
12:02.1,-0.79652971,-2.605503559,-8.745265007,2.367652118,1.828715742,0.149820954
12:02.1,-1.065953135,-1.745350122,-9.464525223,2.194267988,1.715543032,0.395089984
12:02.1,0.765361607,-1.562901974,-9.158813477,1.877404451,0.691863794,0.205132961
12:02.1,2.837967634,-1.565548897,-8.291913986,1.388619304,-0.269925699,0.371346474
12:02.1,4.252520561,-2.221210718,-5.835550308,1.05680126,-1.674937695,0.745155409
12:02.1,3.386437654,-1.853585124,-1.76369822,0.387702942,-3.332483828,0.868506409
12:02.1,2.794964314,0.860805392,1.144931078,0.981116951,-4.017542362,1.362585499
12:02.1,2.263126135,3.928164721,3.034346819,1.058235228,-3.635371029,1.809668297
12:02.1,0.128566056,4.793213844,4.103827477,1.343834162,-1.850704104,1.56415537
12:02.1,-1.268867254,6.360651016,4.984920979,1.802269816,-0.47604081,0.723580241
12:02.2,-4.006669044,7.835999489,5.947709084,2.194801569,0.926636979,0.073008507
12:02.2,-6.484730721,7.310382366,7.201070309,2.494086623,1.862456128,-0.055758774
12:02.2,-5.072019577,7.184330463,7.709505081,2.341176331,2.22774899,-0.23897022
12:02.2,-3.75266552,6.534313202,8.26926899,2.401171252,2.443338454,-0.50725013
12:02.2,-4.304824352,6.061202049,8.094550133,2.258239292,2.053780496,-0.276888728
12:02.2,-4.129454136,4.864812851,6.811950207,2.094006211,1.277397633,0.732845128
12:02.2,-3.285800934,4.155623436,5.948272705,2.161188722,1.598915815,0.869150668
12:02.2,-2.315198183,3.709138393,4.681973457,2.059609413,1.909753144,0.108956397
12:02.2,-2.402764797,2.955773354,2.929538488,1.706291199,2.095376968,-0.992256165
12:02.2,-4.424705029,1.566624284,1.43960166,1.186606884,2.220346808,-1.143471919
12:02.2,-3.873554707,0.223773941,0.807933152,0.854163229,3.730036378,-2.701959874
12:02.2,-3.297399998,-1.380924225,-2.343829632,1.17626065,4.668878555,-3.201167528
12:02.3,-1.961410999,-4.837251663,-5.377708912,1.937171578,5.769051433,-3.492945313
12:02.3,0.453841895,-4.929472446,-7.053616047,2.350732088,5.274269044,-1.448694132
12:02.3,2.347213745,-2.472391605,-7.5921278,2.654628158,3.936880589,-0.71434851
12:02.3,3.673144579,-1.486587524,-7.368845463,2.420819908,2.67656523,-0.436240822
12:02.3,4.937657356,-2.412988424,-7.466802597,1.842773486,2.043111801,0.014642358
12:02.3,3.689257145,-3.237928867,-7.470965862,1.71783714,1.502035916,-0.216481566
12:02.3,2.466599464,-3.543359756,-7.429074287,1.749532104,1.164650023,-0.043767154
12:02.3,1.954728723,-3.435109377,-7.381082058,1.973258555,1.629281998,0.135218263
12:02.3,2.452568531,-2.873892069,-7.354645252,1.892129362,1.517543882,0.086481184
12:02.3,3.157368422,-2.736199856,-6.850405216,1.715586424,1.29974243,0.192589968
12:02.3,4.005448341,-2.993674994,-6.272190571,1.556391835,1.283433318,0.248482019
12:02.3,2.577681065,-3.747653484,-5.280955315,1.231227219,0.969104469,0.111090362
12:02.4,-0.019062873,-3.570400476,-4.15740633,0.897639513,0.415532708,0.467930853
12:02.4,-1.83219564,-3.170214176,-2.727572918,0.730738282,-0.755120695,0.802860476
12:02.4,-0.349226028,-1.162058234,-1.00883925,0.862146616,-2.294350505,0.731235249
12:02.4,2.623132467,0.904262125,1.319397211,0.381418288,-4.003640175,1.000018744
12:02.4,1.736517906,1.978927493,3.12196064,0.402247012,-3.678460717,1.224429823
12:02.4,0.500464499,3.024203062,4.244708538,0.479487658,-2.59502697,0.963733889
12:02.4,0.827024817,4.625583649,4.836687565,0.81161052,-1.613079637,0.619024009
12:02.4,-0.572074354,5.481613636,5.811003208,1.746653795,0.291108765,0.434196115
12:02.4,-2.807998419,6.16062355,5.770593166,2.226557493,1.973540734,0.204293638
12:02.4,-3.456227541,6.880305767,5.826215267,2.127770782,2.091000646,0.021418631
12:02.4,-3.198448181,7.49251461,5.96044302,1.767416656,1.936152399,-0.221332014
12:02.4,-2.895647287,6.808541298,6.010501862,1.744586855,1.70908457,-0.232012689
12:02.5,-3.069144964,5.900942802,6.079018593,1.621430188,1.51740247,-0.052188158
12:02.5,-3.273589849,6.232384205,5.96392107,1.537290141,1.330130517,0.513744116
12:02.5,-2.992473364,5.53651762,4.884484768,1.737986207,1.120672822,0.636087477
12:02.5,-2.310648441,4.735680103,4.038664818,1.850746512,1.264487207,0.289848596
12:02.5,-2.446125269,3.757895947,2.867395878,1.787130892,1.83284694,-0.654962212
12:02.5,-4.359763622,2.699630499,1.799656749,1.484380722,1.710014284,-0.989344671
12:02.5,-5.961403847,0.650891006,1.737251878,1.870671332,2.600776732,-1.684903723
12:02.5,-5.356844902,-0.866349936,1.145697117,2.571568489,4.007713854,-2.726225287
12:02.5,-2.231594324,-2.92847991,-2.242219925,2.757328987,5.49477464,-3.593596488
12:02.5,-0.918264508,-3.390067101,-3.740457296,2.476491332,4.322806895,-1.70857057
12:02.5,0.293034881,-3.859065294,-5.380201817,2.870916963,4.024816692,-0.843808449
12:02.5,1.218683958,-3.616360664,-6.08784008,1.963340819,2.980289638,-0.371914491
12:02.6,1.373395324,-2.859929085,-6.96876049,1.549464107,2.242114186,0.007221758
12:02.6,3.544298887,-2.2788589,-7.513928413,1.367918015,1.714434147,0.176809132
12:02.6,4.9780159,-2.618938684,-7.648079872,1.669740088,1.410891354,0.341575056
12:02.6,4.035408974,-3.10106945,-7.928348541,1.815693468,1.155339003,0.701974034
12:02.6,3.219455242,-3.031871796,-7.944844723,2.273979247,1.536093593,0.518380582
12:02.6,3.91378665,-2.466111898,-7.760672092,2.273844302,1.607003987,0.552758634
12:02.6,4.37967062,-2.866801977,-7.14863205,1.938442051,1.470044553,0.395241976
12:02.6,4.078314304,-3.814089775,-6.684912682,1.557339668,1.337754183,0.394096464
12:02.6,2.33203578,-4.277429104,-6.205236435,1.316708744,0.967288941,0.349142313
12:02.6,1.79443872,-4.028296471,-5.591282368,1.197216928,0.380682498,0.464862958
12:02.6,3.874901295,-4.095509529,-4.602013588,0.718532562,-1.089057326,0.910646372
12:02.6,4.097902775,-2.836118698,-2.013091326,1.06074059,-2.805837631,1.24835135
12:02.7,1.347651839,1.297109365,2.062842846,1.034815729,-4.237295449,2.66854693
12:02.7,-0.972640812,4.776183128,4.573680878,0.954998016,-3.386054516,2.261641987
12:02.7,-0.593355894,5.350381851,5.444804192,1.312985599,-2.240640163,1.474473745
12:02.7,-0.399647743,6.185081959,5.769693851,1.732328296,-0.490794986,0.428531677
12:02.7,-2.380368948,7.489798069,6.281626701,2.009626269,0.942948826,-0.295464844
12:02.7,-5.689682484,7.68096447,6.257448196,2.313366234,1.998029783,-0.617819071
12:02.7,-4.730172157,6.588444233,6.137275696,2.459878743,2.202783853,-0.213734448
12:02.7,-2.947856903,6.307326794,5.997495174,2.259603918,1.967108905,-0.256809413
12:02.7,-2.86975503,6.433372974,5.970682144,2.076570898,1.832478821,-0.372226894
12:02.7,-2.786599636,6.605006218,5.875077724,1.774274915,1.562748134,-0.131886601
12:02.7,-2.432351112,5.841665745,5.292053699,1.636926681,1.54983896,0.06215775
12:02.7,-1.832430243,4.788214207,4.455564022,1.618796051,1.215641439,-0.111672372
12:02.8,-1.544849873,4.195017815,2.89538312,1.2556656,1.563634276,-0.086176515
12:02.8,-3.722806454,2.72827673,1.416367412,1.214496374,2.13010186,-0.775768921
12:02.8,-4.434063435,1.915849209,0.841363132,0.770770192,2.143194079,-1.327284545
12:02.8,-4.470203876,1.364044905,0.89265579,1.165758789,3.195287585,-1.93332025
12:02.8,0.65944612,0.032143354,-1.590776682,2.180696964,5.176473558,-3.194017768
12:02.8,1.575942993,-2.486783504,-2.850992918,2.582522511,4.379765034,-3.165864512
12:02.8,0.830440342,-2.494340181,-4.667002678,2.169147789,4.152254999,-2.063156847
12:02.8,2.793849707,-4.093029976,-5.231629372,2.63757962,3.835145593,-1.193419009
12:02.8,2.07152462,-4.348168373,-5.952267647,2.401940912,2.731995285,-0.645580679
12:02.8,2.374295712,-3.82442975,-6.680570602,1.806897402,2.278427303,-0.189616114
12:02.8,3.010017633,-3.634308577,-7.016702652,1.555970397,1.542023063,0.01853019
12:02.8,3.323605061,-3.634706974,-6.804027081,1.535329193,0.909166038,0.362128556
12:02.9,3.163648605,-3.401979685,-6.480703354,1.7165308,0.993061185,0.47920984
12:02.9,2.584359646,-3.103536606,-6.333137512,2.011241794,1.482809842,0.495383978
12:02.9,2.383089066,-2.856346846,-6.489694118,1.89872545,1.227350265,0.409217119
12:02.9,3.179694653,-2.72541666,-6.46120882,1.894988537,1.413465098,0.217275858
12:02.9,4.065190792,-3.182155371,-6.428752422,1.579788566,1.046266057,0.463429362
12:02.9,4.48718214,-4.175899506,-5.93811655,1.282715142,0.693562746,0.376848817
12:02.9,3.938791037,-4.472527981,-4.918395519,0.897659183,-0.057426035,0.378783561
12:02.9,3.644837618,-4.42017889,-3.371766329,0.594145417,-1.442784965,0.947613113
12:02.9,3.267162085,-3.574948788,-0.616491437,0.641019404,-2.968297005,1.798974395
12:02.9,1.329346657,1.140099525,2.485938311,0.699369133,-3.48819536,2.97266382
12:02.9,-1.93246448,4.249474049,4.555620193,0.772689223,-2.858207047,2.764367193
12:02.9,-1.375969052,5.031060696,6.004340172,1.036072969,-1.756524771,1.854716755
12:03.0,-0.440586448,7.01120472,6.655164719,1.845217168,-0.481900245,0.845289759
12:03.0,-2.117537022,9.383888245,7.000545979,2.785203874,1.343947485,-0.050122172
12:03.0,-4.215081692,10.61131573,7.023933887,3.262236953,2.423304141,-0.259209216
12:03.0,-2.157099009,9.845273018,6.136349678,2.934366047,2.768744349,-0.039235473
12:03.0,-2.873862743,8.88484478,5.465007782,2.322360948,2.140400529,-0.385120511
12:03.0,-3.611794949,7.839366436,5.655516624,2.27380196,1.346102595,0.16472894
12:03.0,-3.237455606,7.40704298,5.292394161,2.385506332,1.306001663,0.95211041
12:03.0,-3.382463694,5.38287735,4.061994076,2.693714619,1.448335767,0.186818033
12:03.0,-3.989115715,3.270316839,2.6302526,2.255220532,2.007189274,-0.345579535
12:03.0,-5.37487936,2.185492992,2.246573687,1.504517198,1.834521055,-1.280458048
12:03.0,-5.083036423,1.163767457,1.747206569,0.90350306,2.34663707,-1.842121684
12:03.0,-2.517351151,0.628143907,1.129604459,0.42234695,3.804386139,-3.075262956
12:03.1,3.112494946,-1.169593096,-2.309015512,1.768172324,6.274967074,-5.223242931
12:03.1,0.679045498,-3.902889013,-4.52742815,2.147293508,4.848359942,-2.015720619
12:03.1,-1.010046005,-4.501752377,-5.906906605,2.852267087,4.189758062,-1.089815728
12:03.1,0.800841391,-4.342022419,-6.354523659,3.733374089,4.080976009,-0.746873274
12:03.1,2.25503993,-3.190820217,-7.139238358,2.88762936,2.983577788,0.016022027
12:03.1,3.590833902,-2.544107676,-7.94470787,2.180770822,2.427287936,0.478212476
12:03.1,4.186737537,-2.431450367,-8.327793121,1.693532407,1.634381473,0.147922546
12:03.1,4.28007555,-2.631147385,-8.467490196,1.749567598,1.271728873,0.298482299
12:03.1,5.117383957,-2.853760481,-8.592191696,1.951720238,1.746266723,0.61330241
12:03.1,5.479607582,-3.163211823,-8.325381279,2.061144054,1.81089358,0.397237659
12:03.1,6.506965637,-3.257235765,-7.566785812,1.809634626,1.376329549,0.395222098
12:03.1,8.203810692,-3.859040499,-6.355834484,1.456744552,1.326164365,0.535431951
12:03.2,7.294619083,-5.330414772,-5.235412598,1.294420481,1.298977375,0.28647995
12:03.2,2.726815939,-5.439948082,-4.514500141,1.047973871,0.953337729,0.252890706
12:03.2,0.895278633,-6.148846149,-4.080508232,0.98985076,0.328507841,0.930636287
12:03.2,1.692146301,-4.19689703,-3.36490345,1.243082553,-0.824658871,1.427444965
12:03.2,1.085916758,-2.170774698,-0.598088026,1.894081533,-2.542890191,2.533614099
12:03.2,-0.324899465,1.768705487,1.968815565,2.083046675,-3.541654229,3.087538213
12:03.2,-1.943160892,4.911167622,4.177382946,1.899058938,-3.321089149,3.007507294
12:03.2,-3.533540964,5.424674988,5.087833405,1.820570827,-1.918258369,2.01651378
12:03.2,-4.427611351,6.374447346,5.260651112,1.940675437,0.450696945,0.481712762
12:03.2,-5.064880371,7.585606098,5.737350464,2.307544291,1.657648653,-0.291322529
12:03.2,-4.162096977,7.905054092,6.060081005,2.300204456,2.3039608,-0.192897737
12:03.2,-4.348143101,7.787677765,6.424529552,1.976471543,2.130570412,-0.31130147
12:03.3,-4.725741386,7.957222939,6.758401394,1.872860432,1.865962878,-0.321827054
12:03.3,-5.726350307,7.135427952,6.927669048,2.148458928,1.831656367,0.157650948
12:03.3,-4.900935173,6.627379417,6.840397835,2.406875646,2.211230218,0.570445895
12:03.3,-4.591013908,5.822410583,5.678368092,2.695337415,2.027680397,0.435738981
12:03.3,-5.886268139,5.048149586,4.578318596,2.393147767,1.802825809,0.071172237
12:03.3,-2.795237303,4.033312798,4.640587807,2.298310757,2.348754883,-0.402159244
12:03.3,-2.854491711,3.019054174,3.025586367,1.532485008,2.145036221,-0.697770208
12:03.3,-5.46446085,1.560980201,2.195289612,1.512799859,2.597337782,-2.016346052
12:03.3,-4.65528059,1.432528496,1.850762367,1.523571551,3.738650203,-3.660453194
12:03.3,1.897249937,-4.328316212,-2.39708066,3.163387537,5.790881515,-5.850913323
12:03.3,-1.896923661,-6.062585354,-3.782006502,2.800107658,4.22581619,-2.895404473
12:03.3,-1.123735428,-5.618253231,-5.414087296,3.248779893,4.117948949,-1.822938874
12:03.4,1.832575679,-4.717093945,-5.907085419,2.777928382,2.994884729,-1.003020763
12:03.4,4.542166233,-4.023485661,-6.295239449,2.207544178,2.524501562,-0.314617723
12:03.4,4.647097588,-4.71220541,-6.690997124,1.785918683,1.711559892,-0.247262418
12:03.4,3.84608674,-5.040568829,-6.814697266,1.895390987,1.383818865,0.065834522
12:03.4,4.265703678,-5.175817013,-6.918966293,2.383601397,1.810595572,0.206688941
12:03.4,4.14966774,-4.85296154,-6.879328728,2.377838373,1.622215241,0.194267511
12:03.4,3.988435507,-4.399302483,-6.601579189,2.05342412,1.571378276,0.290091097
12:03.4,3.897839308,-4.328512669,-6.424284458,1.837880194,1.720431335,0.247867465
12:03.4,3.840527058,-4.676599979,-6.057855129,1.587468147,1.598198175,0.179565966
12:03.4,3.133938551,-5.214473724,-5.225575924,1.308063924,1.165462971,0.398723811
12:03.4,1.206836343,-5.262331486,-4.325761318,1.167498589,0.173904002,0.709160019
12:03.4,2.23584199,-4.059434414,-2.33514142,1.206727087,-1.483458042,1.611256428
12:03.5,1.65735805,-2.229062796,-0.204404429,1.334930241,-2.826383829,2.254503772
12:03.5,0.845281482,0.06133293,2.233687639,1.140014827,-3.571165919,2.792496562
12:03.5,-1.279728532,2.777260065,3.814972639,1.352449477,-2.979095936,2.898363039
12:03.5,-2.014506578,5.07305479,4.936981201,1.11316371,-2.590700626,2.393711388
12:03.5,-2.440194845,6.945474148,5.798170567,1.816016376,-1.22925362,1.436440267
12:03.5,-3.818907022,8.893165588,6.40776062,2.812735975,1.331303984,0.11979568
12:03.5,-4.484837055,9.464409828,6.063295364,3.235325694,2.512542356,-0.302988648
12:03.5,-2.898575306,8.829814911,5.428985119,2.981490731,2.535196722,-0.312627852
12:03.5,-1.883665681,8.791931152,5.176398277,2.694039255,2.284079701,-0.321978807
12:03.5,-3.424245119,8.40404129,5.34306097,2.239350647,1.728336692,-0.340075254
12:03.5,-4.665514469,7.234961987,5.243017673,2.317606047,1.620515823,0.032908559
12:03.5,-5.245402813,5.786746025,4.40147543,2.355838686,1.567276359,0.686026692
12:03.6,-4.963322163,4.214007378,3.568411589,2.352508545,1.671172976,0.303866029
12:03.6,-4.967477798,2.444043398,2.674648046,2.269299746,2.304382145,-0.42213589
12:03.6,-6.173089981,1.603051186,1.754810333,1.41653043,2.014450073,-0.603535935
12:03.6,-5.416642189,1.159775376,1.696331024,1.222941101,3.035736263,-1.826303054
12:03.6,-3.34209919,0.645139813,1.024586797,1.155084789,4.756959617,-3.080562223
12:03.6,1.699501395,-1.654530168,-2.491916656,1.893182993,6.379212797,-4.811443143
12:03.6,-1.407018781,-3.41610384,-4.561485291,2.367397189,4.670729876,-2.506341605
12:03.6,-2.003345728,-4.44933176,-6.233647346,3.410933316,4.358943641,-1.326805852
12:03.6,0.00863475,-3.493481636,-7.248807907,2.840472937,3.485207379,-0.169349186
12:03.6,1.970571518,-2.324818611,-8.089719772,2.371148378,2.692007244,0.202646077
12:03.6,2.966745138,-1.858784914,-9.054457664,2.050186612,1.83963573,0.201869965
12:03.6,4.110124111,-2.002640963,-9.335195541,2.132606447,1.482688725,0.425917029
12:03.7,4.594473839,-2.520877361,-9.422566414,2.501112819,1.713894129,0.605743796
12:03.7,3.866162539,-2.675252676,-9.773711205,2.602726698,1.973711878,0.589570016
12:03.7,4.850995541,-2.395516396,-9.574286461,2.701912463,2.330454901,0.51182586
12:03.7,5.157176971,-2.929130316,-9.498121262,2.590920985,2.285800844,0.579801887
12:03.7,4.710198402,-3.716186762,-8.78311348,2.236397147,1.771907836,0.49488312
12:03.7,4.028835773,-3.805663824,-7.422411919,1.696080327,0.611070991,0.84973716
12:03.7,3.55131793,-4.902178764,-5.930116177,1.25508213,-0.483514726,1.021378793
12:03.7,2.565958738,-3.883846998,-2.890630007,1.879514039,-1.120766044,1.305172801
12:03.7,-0.522597432,-1.895428538,-0.369685948,2.221461624,-2.303901911,1.820094526
12:03.7,-1.0018332,-0.275341004,2.193911552,2.068218082,-3.597633421,2.392146468
12:03.7,-0.802174509,2.286072969,3.828703642,2.029447556,-3.410699129,2.258282274
12:03.7,-0.97464323,5.324421883,4.973591805,1.703676164,-2.759043634,1.74947983
12:03.8,-1.822286963,7.317153454,6.294150829,2.041554987,-1.407087624,1.069308648
12:03.8,-4.155975819,8.342494965,7.687103271,2.739433825,0.839703381,0.04186438
12:03.8,-6.944982052,8.566135406,8.41138649,2.957939565,2.824513465,-0.636503637
12:03.8,-7.867333412,6.738862991,8.192095757,3.008488059,2.975764602,-0.327508152
12:03.8,-3.748233318,5.439984798,8.242516518,2.658277988,2.702731699,0.430473864
12:03.8,-3.069525003,5.961258411,7.844067097,2.56265977,2.428404689,0.328682959
12:03.8,-6.634894848,5.655489922,6.909786701,2.469909219,2.039912283,0.240210414
12:03.8,-6.261847019,4.593668938,7.268867016,2.370598108,1.968467832,0.742341489
12:03.8,-2.471987963,4.031207561,6.713366032,2.69343698,2.302956462,0.564587533
12:03.8,-3.089925051,3.067617655,4.732983589,2.094097733,2.415553093,-0.193762481
12:03.8,-4.335204124,1.713584542,3.78392005,1.536615252,2.532864749,-1.145411067
12:03.8,-3.406019926,0.868547022,2.544802904,0.664924562,3.672347248,-1.540235071
12:03.9,-2.132573605,1.976985574,2.281436205,0.435980856,5.490617186,-5.533157222
12:03.9,2.764739752,-3.285051107,-5.077816963,3.324577689,6.312361479,-2.784041554
12:03.9,0.763099134,-3.923968792,-7.339622974,2.214946628,5.017344117,-1.710216954
12:03.9,0.111554563,-4.930684566,-7.959332466,3.234864712,4.578207791,-0.820504203
12:03.9,-0.009578742,-3.106060982,-8.191679955,2.702293962,3.467533112,-0.215980515
12:03.9,0.690652132,-1.677039623,-8.607932091,2.345047149,2.802584529,0.536049098
12:03.9,2.393745422,-0.618839025,-9.020977974,2.044715911,2.001789153,0.583840638
12:03.9,4.466589928,-0.627370596,-8.697990417,1.842604876,1.073646367,0.652019083
12:03.9,6.003515244,-1.370888948,-8.695298195,1.76195246,1.700926125,0.805372626
12:03.9,5.108551502,-1.691664577,-8.557952881,2.215600252,2.006369203,0.599151254
12:03.9,5.670436859,-1.645709395,-8.233111382,2.053629816,1.975035971,0.504515976
12:03.9,6.299695969,-2.310853004,-8.001454353,1.952845514,2.575477719,0.296887308
12:04.0,4.346747875,-3.169016361,-7.640746593,2.031273782,1.956329346,0.169472396
12:04.0,4.585450172,-2.946362972,-7.150309563,1.657689452,1.418188155,0.390430368
12:04.0,4.846717358,-3.572293043,-5.710080624,1.699585736,0.280999601,0.53364411
12:04.0,3.429483652,-3.778763771,-3.59830761,1.982251167,-0.67375654,1.429543838
12:04.0,0.195757896,-3.923489571,-0.377458304,1.572168231,-2.379719675,1.954565823
12:04.0,0.358976424,-2.655552864,1.886454225,2.367532194,-3.408192813,2.189748585
12:04.0,1.320225477,0.637863696,3.89599514,1.982264966,-3.961858571,2.560382783
12:04.0,-1.678949475,3.99233079,4.943217278,1.587417603,-2.82904774,2.577015519
12:04.0,-5.208946228,5.567110062,5.319839478,1.674381852,-1.191049278,1.71297656
12:04.0,-3.475667,7.707810402,6.062184334,1.955635667,-0.031369209,0.687226858
12:04.0,-3.989293098,8.906923294,6.853736401,2.219096065,1.233136833,-0.16229862
12:04.0,-9.156832695,7.381458759,7.709792614,2.779672801,2.710377812,-0.280714273
12:04.1,-5.698218822,6.206641197,8.489593506,2.589574635,3.157648444,0.609045744
12:04.1,-3.300366163,5.505444527,7.606235981,2.243239671,2.159121573,0.003701091
12:04.1,-5.479458332,5.934682369,7.348225594,2.196525127,2.944623172,-0.203650832
12:04.1,-4.334031582,5.56159544,6.443186283,1.666899892,2.851815045,0.714818954
12:04.1,-2.006552935,5.988874912,5.612506866,1.665793628,1.300422132,0.901095212
12:04.1,-1.960327625,5.555151939,4.695224762,1.993835866,1.452003837,0.260741562
12:04.1,-2.298568964,4.605564117,4.429344177,2.178630114,2.177957833,-0.730107188
12:04.1,-6.086428642,2.390663147,2.488283634,1.595207334,2.01786387,-0.755639777
12:04.1,-6.536852837,0.385851979,2.258226633,1.783178926,2.901165485,-2.430540813
12:04.1,-2.640854359,1.209570646,1.306540728,0.772466362,4.910260975,-4.469270892
12:04.1,3.811687946,-3.53953886,-1.947600245,3.575506032,5.747739732,-4.798279492
12:04.1,0.080168545,-4.283735752,-4.468470573,2.984962225,4.315074265,-2.024914399
12:04.2,0.568816245,-4.702610493,-5.576112747,3.247768223,3.851905704,-1.451196238
12:04.2,2.683031797,-4.750445843,-6.056287766,3.037415892,3.261739254,-0.64810729
12:04.2,4.161436081,-4.467918873,-6.953944206,2.305763692,2.31026125,0.194365054
12:04.2,4.821448326,-4.421334267,-7.719363213,2.000671921,2.141713917,0.057543337
12:04.2,5.171486378,-4.428645611,-7.64822197,2.320473522,1.616342723,0.110738397
12:04.2,6.607114315,-4.852748394,-7.815397263,2.595413864,2.167343855,0.418982387
12:04.2,7.31794405,-5.564110279,-7.574351311,2.727347136,2.37873283,0.323644698
12:04.2,6.562239647,-6.040897846,-7.235169411,2.763895631,2.130527541,0.283403397
12:04.2,6.65531683,-6.641629219,-6.389452934,2.131023407,1.603085458,0.518305719
12:04.2,5.41549015,-7.405464172,-4.960999012,1.747049987,1.013674736,0.592302389
12:04.2,2.987677574,-6.782630444,-3.911973715,1.237404048,0.739813507,0.576257378
12:04.2,3.600131273,-4.389997005,-2.656657696,0.780766189,0.223106623,0.92172581
12:04.3,5.22559166,-3.847408772,-0.131136745,2.460054278,-1.04229039,1.647809744
12:04.3,3.211078882,-1.069498181,0.304981053,1.907638788,-2.138667583,3.411126733
12:04.3,-1.633677244,1.592951179,2.594560385,1.849274993,-1.818447709,4.066659033
12:04.3,-3.762645245,5.365334034,3.888117552,1.704488039,-2.012051105,3.821499348
12:04.3,-3.871756077,8.020108223,4.842946529,1.67710346,-1.538725197,3.049640685
12:04.3,-7.110756874,10.0964098,6.162070751,2.276823461,-0.097841471,1.371534693
12:04.3,-10.67821121,8.275803566,7.185434818,3.08663851,1.694753602,-0.402944952
12:04.3,-7.532124519,6.625460148,8.157168388,3.36181277,2.877863392,0.127136528
12:04.3,-4.996499538,5.986031532,7.661027431,3.242758036,2.760880411,0.027392507
12:04.3,-4.322840691,6.412986279,7.584748745,2.998563617,2.516077042,-0.06066519
12:04.3,-3.641006947,6.46670723,7.535967827,2.691181347,2.249226928,0.249483883
12:04.3,-3.193891525,5.657953739,6.954266548,2.500940695,1.865832746,0.622222602
12:04.4,-3.947737217,4.659692764,5.722914696,2.460954875,1.863330185,0.621439964
12:04.4,-4.338982582,3.282012463,4.571200371,2.245999157,1.871738911,0.0650381
12:04.4,-3.42433691,1.952894688,3.78721118,1.561699748,2.141653359,-0.675231464
12:04.4,-4.452942371,1.31975317,3.370400667,0.868764997,2.389885604,-0.214023195
12:04.4,-3.620228529,-0.046028771,2.433285475,1.691944301,4.270045757,-1.371023834
12:04.4,-2.281226397,0.404846847,0.060880363,1.178317547,5.059903383,-2.412651598
12:04.4,3.260413647,-1.683709741,-2.306252241,2.35376358,6.347667217,-3.033638239
12:04.4,2.414368153,-2.450717449,-4.242288113,2.306295633,4.301124811,-1.426152054
12:04.4,1.64910388,-3.720252275,-5.317476749,2.985650718,3.618458569,-0.84246932
12:04.4,1.317674994,-3.465695143,-6.392522812,2.661818743,3.010194242,-0.344587162
12:04.4,2.964862347,-2.914516926,-7.146383762,2.248220712,2.432219565,0.132115588
12:04.4,4.147654057,-2.693999529,-7.661815166,1.750715725,1.818800926,0.167428374
12:04.5,4.266157627,-2.89379406,-7.787241459,1.728629127,1.225190818,0.364636719
12:04.5,5.310108185,-3.045430183,-7.639108658,1.805602282,1.32607156,0.662094414
12:04.5,5.782622337,-3.473008156,-7.305717945,2.045782149,1.754896462,0.520341933
12:04.5,4.908876896,-3.596352816,-7.049210548,2.172923684,1.638968498,0.314988375
12:04.5,5.058205605,-3.946981668,-6.678253651,1.909010887,1.715881231,0.398283601
12:04.5,5.487771988,-4.623333931,-6.180502892,1.718261659,1.780937731,0.34725365
12:04.5,4.44751215,-5.400105953,-5.153953075,1.613860905,1.385360688,0.27981852
12:04.5,1.141636252,-6.008038521,-4.856528282,1.333783567,0.858677804,0.450405183
12:04.5,-1.987462759,-4.75994873,-5.276846886,0.992151141,-0.045279443,0.952613793
12:04.5,1.206609249,-3.213131428,-3.183289528,1.457464278,-1.863224089,1.807806253
12:04.5,4.938840389,-0.558316886,-1.212389946,1.125994802,-4.410876334,2.309770316
12:04.5,2.260993719,1.991069674,1.309886098,1.468509138,-3.79962641,2.919097245
12:04.6,-3.449021101,4.757074833,2.941125154,0.922705054,-2.983968854,2.775026441
12:04.6,-4.370594978,5.960199356,4.492856979,1.269602239,-1.933311582,1.570901088
12:04.6,-5.410524845,6.681594372,4.855132103,1.650861025,-0.191997647,0.291001886
12:04.6,-8.21752739,5.354888916,5.878670216,2.487455606,1.66871357,-0.029973626
12:04.6,-5.94926548,4.918972492,6.359360218,2.614971995,2.384646855,0.719330847
12:04.6,-3.181432009,4.012363911,6.47454977,2.449273765,2.556605995,0.654591262
12:04.6,-4.925967693,4.553387642,6.734579086,2.011677682,1.94690299,0.243856966
12:04.6,-4.575082302,5.668637276,8.106163025,1.982632995,2.032756805,0.10997647
12:04.6,-4.453145027,5.228936672,7.937011719,2.282565586,2.14920646,0.335545599
12:04.6,-4.890547752,5.558725834,6.319326401,2.140588611,2.470370471,0.7973032
12:04.6,-4.509638786,5.43491888,5.432244301,2.247300744,2.470354259,-0.092656255
12:04.6,-3.403707266,3.42409873,5.046358109,1.772578359,2.356525004,-1.257411152
12:04.7,-2.393190622,3.240058422,3.906818628,0.902883947,2.632513046,-0.902984306
12:04.7,-3.026574373,0.893609703,2.552211046,1.338413179,3.37787658,-2.660418775
12:04.7,-2.330739021,-0.070947342,0.306835204,0.576295912,3.924463391,-5.490240894
12:04.7,1.863995433,-6.167669296,-1.70812571,3.125078678,4.652413011,-3.810306758
12:04.7,-2.06616497,-5.729311943,-3.919591188,2.474599183,4.045065284,-1.808989853
12:04.7,-1.877013445,-4.978450775,-5.094072819,2.474603891,3.580065191,-1.227597609
12:04.7,0.918442011,-3.398104906,-5.664581776,2.417709857,2.932815194,-0.764262438
12:04.7,3.23898077,-2.708093643,-6.464821815,1.950614423,2.529782951,0.000266671
12:04.7,4.080700874,-2.845970154,-6.991935253,1.709426433,2.035780609,0.088497192
12:04.7,3.231131554,-2.843352079,-7.48244381,1.466316417,1.291062713,0.095641136
12:04.7,3.257182121,-2.847246647,-7.716172218,1.747375906,1.403768599,0.24353075
12:04.7,3.883168936,-2.841467857,-7.799310684,1.87401551,1.656918764,0.372025609
12:04.8,3.740417719,-2.77817893,-7.615226269,1.755841315,1.559164077,0.178818226
12:04.8,3.540091515,-2.91006875,-7.164804935,1.67410326,1.546752259,0.170744359
12:04.8,3.698372841,-3.461827517,-6.777295113,1.535096467,1.556419551,0.275156885
12:04.8,2.337790251,-3.977489233,-5.901201725,1.376145005,1.049667269,0.125570297
12:04.8,0.989491701,-3.61058259,-4.906303883,1.055953085,0.354283988,0.435471848
12:04.8,2.215806723,-2.86714983,-3.343393326,0.962002575,-0.988637984,0.727047965
12:04.8,3.906867027,-1.465926886,-1.803377271,1.276026666,-2.634051979,1.404076263
12:04.8,2.738440037,-0.607212126,0.93812865,1.032862365,-3.735293627,2.377994657
12:04.8,-0.896795452,1.357683659,2.976318121,0.933559835,-2.958546758,2.384417802
12:04.8,-3.62373209,2.748538971,4.217710972,0.963668525,-2.133369446,2.006797021
12:04.8,-4.085411549,4.092055798,4.898060799,1.178164005,-0.703274429,1.13699054
12:04.8,-3.680177689,5.368902206,5.633696079,1.588214576,0.734936446,0.25951013
12:04.9,-4.349051476,6.326215744,6.539052963,1.920626283,1.53334491,-0.101063609
12:04.9,-6.509516716,6.270313263,7.032797337,2.246610999,2.228739038,-0.067457914
12:04.9,-5.034085274,5.528647423,6.972284317,2.255271196,2.786361307,0.343326569
12:04.9,-2.785736561,5.956734657,7.015504837,2.069975317,1.979454219,-0.041819811
12:04.9,-2.2137146,6.370857239,6.75669384,2.151599459,2.13235873,-0.220301926
12:04.9,-4.051420689,6.075076103,6.028042793,1.91683273,2.170045912,-0.059538186
12:04.9,-4.013674259,6.022894859,5.623035908,1.532912612,1.627915263,0.525706768
12:04.9,-2.033194542,4.882271767,4.142231941,1.88018018,1.540590942,0.080403775
12:04.9,-2.04624629,2.986308336,2.633770466,1.719806194,2.42229116,-1.39628531
12:04.9,-3.612437487,2.440413475,1.943199873,1.081620336,2.528188407,-1.942981757
12:04.9,-3.3649683,1.959215045,1.67565167,1.620681524,3.550437033,-3.078484292
12:04.9,1.172268033,-1.9746176,-1.381338716,2.93733114,5.247321963,-6.107843325
12:05.0,0.060859378,-4.733282089,-2.752915382,2.293472886,3.958242238,-2.815587156
12:05.0,-2.626431465,-6.240403175,-4.450752258,3.186665237,3.453172922,-1.480515823
12:05.0,-1.190530896,-4.804735184,-5.823070526,2.27444005,3.06268084,-0.824554086
12:05.0,1.81371963,-3.234235048,-6.263143539,1.7287471,2.035425782,-0.070187896
12:05.0,4.12421751,-2.770592928,-7.107041359,1.367641032,1.715753913,0.196021169
12:05.0,4.798080444,-2.999123573,-7.412491798,1.452504396,1.415920854,0.195171118
12:05.0,4.297707558,-3.379004478,-7.617102146,1.641554743,1.499452651,0.447722673
12:05.0,3.310436726,-3.580619812,-7.824047565,1.855979681,1.748330474,0.44467175
12:05.0,2.629576445,-3.21874547,-7.812694073,2.035139859,1.951173723,0.269682825
12:05.0,2.455970287,-2.934602261,-7.737164497,1.824618816,1.676967129,0.512142658
12:05.0,2.924562931,-2.721766949,-7.348075867,1.769749403,1.725118093,0.4923338
12:05.0,0.785443306,-2.533924103,-6.958281517,1.523777187,1.204618961,0.328511953
12:05.1,-2.45515275,-1.86840117,-6.368868351,1.065217674,-0.055033654,0.588047117
12:05.1,-2.762861252,-2.196249247,-4.406705379,0.859694004,-1.443564296,0.546650022
12:05.1,0.762653828,-0.483068585,-2.206470251,1.522961557,-3.349445581,-0.341686904
12:05.1,1.631366134,-0.084323511,0.913166702,0.99082613,-4.523577929,-0.125608593
12:05.1,-0.571073472,0.041700326,3.871190548,0.970717072,-3.834859312,0.263261139
12:05.1,-2.169017315,1.221047282,5.610723019,1.173539877,-2.25333631,0.300341517
12:05.1,-2.03907299,2.023803473,7.026736736,1.355289996,-1.040773392,0.110616654
12:05.1,-2.012779474,1.489495635,8.273933411,2.079595149,0.247089766,0.574287981
12:05.1,-2.055078506,1.42077148,8.992571831,2.453480363,1.472482175,0.399484634
12:05.1,-3.395321131,2.251821041,9.101127625,2.583587766,2.243742198,0.417200744
12:05.1,-4.520909309,2.112979174,8.885508537,2.320000529,2.327915013,0.628289878
12:05.1,-2.062086344,1.991133809,9.256705284,2.028975546,2.092251062,1.06958738
12:05.2,-0.793152213,3.199674368,9.324083328,1.967013538,1.51805979,1.293173313
12:05.2,-0.324089319,4.864309311,8.318898201,2.205908597,1.897637665,1.030736268
12:05.2,-0.919720411,4.942242146,6.833725929,2.595897555,2.514355183,-0.039960295
12:05.2,-0.635925293,3.455978632,5.289507389,1.895084679,2.089951158,-0.516694605
12:05.2,-1.80041945,2.709053755,3.595864058,0.800857484,2.796421587,-0.950383201
12:05.2,-4.039190292,1.016881585,2.651924372,0.805325866,3.065833449,-2.984429181
12:05.2,-3.826536894,-0.213320598,0.485447764,1.372737765,4.880852938,-4.822980307
12:05.2,-0.041292258,-5.186416149,-2.923333883,3.404217482,5.44582361,-3.373194146
12:05.2,-1.568163395,-4.269793034,-4.8457551,2.598831475,4.182727695,-1.381735496
12:05.2,0.685442388,-3.603463173,-6.095047474,3.019262254,3.972533047,-0.686817065
12:05.2,1.694265723,-2.869486332,-6.879226208,2.474683613,2.800440848,-0.105087399
12:05.2,2.735840082,-2.488645315,-7.754163742,1.844321311,2.209709704,0.060900956
12:05.3,3.292216778,-3.0271523,-8.161828995,1.726731896,1.676919281,-0.149956375
12:05.3,3.458812952,-3.143239975,-8.401556015,1.81213069,1.186383069,0.176889658
12:05.3,4.164199352,-3.35675478,-8.322250366,2.033179224,1.680789649,0.4181633
12:05.3,3.456187725,-3.403524399,-8.190479279,2.203856707,1.539792091,0.304317415
12:05.3,2.291610241,-3.135251522,-8.081281662,1.963505685,1.322516769,0.222344995
12:05.3,3.190274715,-2.859380245,-7.725599289,1.613547921,1.443483226,0.436773837
12:05.3,4.20874691,-3.143043995,-6.804411411,1.51364857,1.247783959,0.192964613
12:05.3,3.332114458,-3.671658516,-6.047086716,1.429234445,0.758900642,0.193294972
12:05.3,1.647694111,-3.919290543,-4.668185711,0.956529319,0.451090872,0.617117338
12:05.3,1.353266597,-3.194554329,-3.448036671,1.428815901,-0.723649323,0.75157395
12:05.3,2.157085657,-2.369339943,-1.544902682,0.970118642,-2.396529138,1.209379584
12:05.3,2.685027122,-0.052576415,0.98724407,1.597025335,-3.212813914,1.90671815
12:05.4,-0.670090735,2.075840712,3.157279968,1.24079591,-3.43345803,2.437281489
12:05.4,-2.282539368,4.029743195,4.787030697,0.761139989,-2.753834724,1.906309873
12:05.4,-2.480643272,5.658189774,5.697711468,1.14296484,-1.767129987,1.184728216
12:05.4,-1.845567822,6.859158039,6.466631413,1.734962285,-0.451798916,0.316816285
12:05.4,-2.913687468,7.189968586,7.023490906,2.329749227,1.121480346,-0.472374886
12:05.4,-4.182191372,6.709712029,6.715423107,2.56041187,2.603831373,-0.718812287
12:05.4,-4.029937744,6.352437973,5.768267632,2.215937734,2.809083492,-0.609829485
12:05.4,-3.371998549,6.131416798,5.193048477,1.818911016,2.257105023,-0.461100042
12:05.4,-2.595728874,5.969040871,5.20793438,1.615349278,1.687443495,-0.260553658
12:05.4,-3.287552595,4.979453564,4.618434429,1.491346952,1.601975977,0.050128877
12:05.4,-3.763705492,5.109713554,4.06462574,1.357900515,1.297743618,0.495360851
12:05.4,-3.495054007,4.51247406,3.626532793,1.639341623,1.553281426,0.357248187
12:05.5,-3.089370728,3.972170115,3.176297426,1.364494205,1.736844599,-0.126919359
12:05.5,-2.969255924,3.347841024,2.428997517,1.081668377,1.894682586,-0.536547169
12:05.5,-3.580725908,2.305517673,2.101451159,1.306885481,2.888656616,-1.553810261
12:05.5,-4.510808945,0.788562179,0.922922671,1.482100606,3.928925693,-3.264859552
12:05.5,0.322688788,-1.358888388,-2.17296052,1.402175069,5.706772804,-5.037918791
12:05.5,3.244929314,-3.554733515,-2.833386421,1.648515105,4.21444577,-3.352366846
12:05.5,2.139042377,-5.092431545,-3.570449829,2.513677299,3.813671291,-1.7699323
12:05.5,0.917654037,-4.498306274,-4.931093693,2.188121885,3.244989038,-0.934463441
12:05.5,3.164078712,-3.891539097,-5.68271637,1.986088008,2.505790532,-0.434230506
12:05.5,4.700147629,-3.915853262,-6.474698544,1.562909905,2.015984654,-0.167303085
12:05.5,4.450932503,-4.243661404,-7.003506184,1.547035784,1.691311896,0.094084263
12:05.5,4.853274822,-4.415468216,-7.131186485,1.721804768,1.791568637,0.249268472
12:05.6,4.622650623,-4.738776207,-7.078420639,2.01301235,1.723584682,0.078080177
12:05.6,4.935497761,-4.696129799,-6.778498173,1.909686267,1.73258242,0.184156775
12:05.6,5.5878582,-4.903514862,-6.317394257,1.750678301,1.777347386,0.304375887
12:05.6,5.149711609,-4.988542557,-5.622042179,1.573006213,1.475263894,0.072343707
12:05.6,5.32694912,-4.986179829,-4.442807674,1.131903827,1.287954301,0.182824567
12:05.6,5.450248241,-5.106129646,-3.600198507,0.890568495,0.877863646,0.394286871
12:05.6,3.854242086,-5.03465271,-3.001264334,0.839356363,0.076154172,0.57613197
12:05.6,2.881896257,-3.575624466,-1.678074121,1.219997942,-0.808519125,1.407881886
12:05.6,-0.269763976,-2.256105423,-0.523275197,1.234551966,-2.104524612,3.508144021
12:05.6,-0.83167845,1.264888525,1.557398796,1.540124595,-3.013856411,3.863689393
12:05.6,-1.832026243,4.971918106,3.049685717,1.239255428,-2.755816698,3.27772519
12:05.6,-3.697632074,6.414433479,3.86198473,1.28200084,-1.646000803,2.205512539
12:05.7,-3.778122902,7.568918705,4.812729359,1.50592792,0.028311551,0.789110391
12:05.7,-4.741862297,7.937152863,5.263263702,1.956338406,1.302017003,-0.461732864
12:05.7,-7.725688934,6.472458363,4.865978718,2.250510454,2.178701803,-0.718817651
12:05.7,-7.377131462,5.504326344,5.256829262,2.146548331,2.169519812,0.425506234
12:05.7,-2.85700798,4.993422508,5.557681561,2.01983285,2.035217881,0.237933099
12:05.7,-1.656095386,5.935845852,5.692446232,1.734378219,1.376963049,-0.15960151
12:05.7,-2.834930182,6.26624155,5.764368534,1.89725548,1.748250842,-0.307046115
12:05.7,-3.936088324,6.314767838,5.084420204,1.723309584,1.768205166,0.473408043
12:05.7,-3.465929031,6.105518818,4.739552021,2.032671452,1.68026644,0.277053058
12:05.7,-3.259381294,5.30210495,3.59863472,2.504068136,2.572981656,-0.820746571
12:05.7,-3.316860676,4.02547884,2.103397131,1.720005155,2.091383696,-0.877928108
12:05.7,-2.497101784,2.155173302,2.07994771,1.603180587,3.112075448,-2.31038253
12:05.8,-4.132824898,1.722536206,1.021408439,1.121397495,3.28614819,-4.284249648
12:05.8,1.221867085,-1.093963742,-1.444213152,1.011244297,4.343918145,-6.368099056
12:05.8,3.033068895,-5.608760357,-1.929716229,1.774368703,4.017196,-4.107182547
12:05.8,-1.712267876,-6.059784889,-3.42485714,2.374883115,3.725491703,-2.422774315
12:05.8,-1.641688824,-5.692155838,-4.832052708,1.979016364,3.151528239,-1.763105005
12:05.8,1.919177055,-4.424042225,-5.440389633,1.833059341,2.627340972,-0.766322345
12:05.8,4.305819511,-3.966245413,-6.021700859,1.649138989,2.219291687,-0.137609899
12:05.8,4.335876942,-3.871829987,-6.320905209,1.662011892,1.67178005,0.016157091
12:05.8,4.341929913,-4.046049595,-6.223680973,1.693637252,1.411074698,0.298706412
12:05.8,4.129906654,-4.143632889,-6.005322933,1.744685948,1.472041577,0.146942794
12:05.8,3.826301813,-3.852137089,-5.584728241,1.98131001,1.597721577,-0.112504125
12:05.8,4.022465229,-3.51158905,-5.050584793,2.041723728,1.572705735,-0.03847158
12:05.9,4.613439083,-4.083315372,-4.665343285,1.721703529,1.389059439,-0.179009527
12:05.9,4.180463314,-4.669812202,-3.602127314,1.355783701,0.952283889,-0.260360658
12:05.9,2.540689707,-5.518466473,-3.121749878,1.203134537,0.533846974,0.089439616
12:05.9,0.325398892,-4.923695564,-2.391497135,1.012703896,-0.348031014,0.520721564
12:05.9,1.713945985,-3.706575871,-1.174518347,1.026511312,-1.230627954,1.39426671
12:05.9,-0.185087368,-2.141931772,-0.185079738,0.341466665,-2.778066754,2.834249914
12:05.9,0.170812443,0.407690108,1.462462902,0.301290929,-2.931097686,2.908085689
12:05.9,-1.533712268,3.020268917,2.498489857,0.29735589,-2.559884131,2.768714607
12:05.9,-2.406763315,4.79334259,3.409079313,0.547129214,-1.727001697,2.030500609
12:05.9,-3.831164837,6.192738533,4.336718559,1.450329185,-0.643937647,1.080404982
12:05.9,-4.798195362,7.723317623,5.419908047,2.440471113,1.116156101,0.259431392
12:05.9,-4.647026062,7.813317299,6.101973057,3.012747645,1.910198353,-0.023228288
12:06.0,-3.573287249,7.368740559,6.29499197,3.085188329,2.672105759,0.10667628
12:06.0,-4.731445789,7.027056217,5.868985653,2.668811023,2.515069157,0.206654847
12:06.0,-5.749791145,6.955371857,6.577764511,2.368826643,2.098938644,0.089282632
12:06.0,-5.066476345,6.867123604,6.986558437,2.525094032,2.100139081,0.15704155
12:06.0,-5.039647102,5.998856068,5.932024479,2.460369825,1.822992384,0.222173244
12:06.0,-3.623322964,4.726763725,5.236245155,2.503207684,2.085979223,0.452740282
12:06.0,-2.842637777,3.004701138,3.849352837,2.584150076,2.969283342,-1.477014773
12:06.0,-5.357928276,1.029509664,1.964625001,1.15462774,2.605974257,-1.50176989
12:06.0,-4.836783886,3.472283125,10.0904007,0.257744551,3.969045103,-3.81845656
12:06.0,5.72627449,-4.386205673,-4.180314064,5.900460601,6.882558465,-1.643774241
12:06.0,-0.168154061,-5.353199482,-2.890418291,1.943904161,3.410799384,-2.418133732
12:06.0,-2.705121517,-5.465707302,-5.250482082,3.067367971,3.343091488,-1.003731906
12:06.1,0.261884809,-4.01605463,-5.675577164,2.589347303,3.52542913,-0.655325726
12:06.1,3.853002071,-2.750199556,-6.445170403,2.304000676,2.990315497,0.020947963
12:06.1,5.791647434,-2.919985056,-6.702474594,1.683160424,2.127904177,0.08467567
12:06.1,5.156071186,-3.887579679,-6.818611145,1.367222324,1.372109592,0.070323765
12:06.1,4.262608051,-4.303393841,-6.531119347,1.204085618,1.011275589,0.444396496
12:06.1,3.450230598,-4.484789848,-6.055588722,1.460488558,1.025595427,0.140869319
12:06.1,2.724886417,-4.27758503,-5.623088837,1.411011636,1.05932498,-0.00314492
12:06.1,2.993121624,-4.311597824,-5.443678379,1.350241899,1.201208979,0.221842289
12:06.1,3.537889957,-4.788966179,-5.028846741,1.416392803,1.76292426,-0.227656156
12:06.1,1.314746261,-4.490607738,-4.855639935,1.458752692,1.572090179,-0.496582985
12:06.1,-0.882471383,-5.382993221,-4.534973145,1.162122011,1.092359602,0.119911835
12:06.1,-2.797490358,-4.47252512,-4.363288879,0.845928252,0.258197725,0.182756871
12:06.2,2.475596905,-2.851231813,-3.531960249,0.317864835,-2.006110132,0.314314049
12:06.2,8.010889053,-1.222461581,-1.402672768,0.626517475,-4.044590712,1.623572469
12:06.2,3.834578037,0.664617181,1.617270231,0.560691178,-3.766470909,3.032608807
12:06.2,-3.412206888,4.548089027,3.023179293,0.761926353,-1.722193152,2.739308372
12:06.2,-5.043372631,5.258116245,3.984669209,0.899792671,-1.339216202,1.571409047
12:06.2,-2.571017265,5.658855438,4.41263485,1.676618874,-0.298130035,0.410224095
12:06.2,-1.746234655,6.916072845,4.273039818,2.321194768,0.735387191,-0.048431128
12:06.2,-3.366749763,7.658294201,4.541125298,2.174996614,1.485822655,-0.203222573
12:06.2,-3.917185545,7.614103317,5.409188747,2.096909761,1.893940926,-0.035231233
12:06.2,-3.588968039,6.800988674,5.399856091,1.991827488,1.853649586,-0.102365613
12:06.2,-4.18766737,6.07827282,5.780781269,1.94002834,1.725071788,-0.253305137
12:06.2,-4.605855942,5.400612831,5.907399654,2.131865753,2.001814723,-0.090695143
12:06.3,-4.018063068,4.61864233,4.890492916,1.838703722,1.727519274,0.599820793
12:06.3,-3.355759621,3.956546307,4.042016506,2.216335356,2.304804027,0.095984936
12:06.3,-4.284757137,3.452421904,3.286715269,1.730717778,2.028055549,-0.786406904
12:06.3,-4.40711832,2.17411828,3.081131458,1.070022702,2.04764843,-1.420402035
12:06.3,-4.315524578,0.793456495,2.453562737,0.545910537,3.464917481,-2.517804131
12:06.3,-3.774669647,-0.171536848,0.817814112,0.90574187,4.744048357,-4.791856729
12:06.3,0.930186808,-4.708991051,-2.128407001,1.520198762,5.898527026,-4.901214413
12:06.3,0.031051796,-5.212889671,-4.148943901,2.054596066,5.047068536,-1.52938278
12:06.3,0.681738436,-4.401729107,-5.219491005,2.445425987,3.980826437,-1.30083251
12:06.3,2.365949631,-3.280868292,-5.907675266,2.27409336,3.020038784,-0.6744093
12:06.3,3.997259617,-3.367357492,-6.727565289,1.858041599,2.396365702,-0.185650051
12:06.3,4.399401665,-3.738894701,-7.324945927,1.642186709,1.806143463,-0.163656771
12:06.4,4.142883301,-3.726719379,-7.501612663,1.802415192,1.449292183,0.073071539
12:06.4,4.769528389,-3.912928581,-7.514855862,2.106243253,1.803610027,0.237242103
12:06.4,5.492557049,-4.190363407,-7.284342289,2.144291222,1.901216924,0.06547308
12:06.4,4.996063709,-4.210607529,-6.759149551,2.086084247,1.611846324,-0.101461709
12:06.4,5.204357624,-4.79715538,-5.941326141,1.70859915,1.38814868,0.02609542
12:06.4,5.003822327,-5.428609371,-4.826363087,1.545803189,1.181492895,-0.115118444
12:06.4,2.492499828,-5.77136898,-4.209910393,1.286890149,0.761531413,-0.107574809
12:06.4,0.494674414,-4.351474285,-3.383328676,1.060660183,0.243744433,0.506690703
12:06.4,1.444849968,-4.464715958,-1.690104485,1.717882991,-0.659298778,1.051423937
12:06.4,-1.057455301,-3.991549015,0.028233673,1.421447873,-2.281062782,2.448803186
12:06.4,-1.56610465,-1.267481565,2.43870616,1.534210682,-3.107891083,2.871577054
12:06.4,-1.300486207,0.813077569,4.139025688,1.369571745,-3.602644444,2.870815516
12:06.5,-1.265263796,3.263775826,5.443350792,1.299218237,-2.843997717,2.48666358
12:06.5,-1.290709853,6.438706398,6.738991737,1.775648832,-1.280421734,1.391410343
12:06.5,-1.641174912,8.607721329,7.267193317,2.268357992,0.629404187,0.019626126
12:06.5,-3.303190708,8.997807503,7.168941975,2.764754236,2.227232534,-0.87922594
12:06.5,-3.640967369,8.697149277,6.863311768,2.686148345,2.913988918,-0.712513387
12:06.5,-3.519911289,7.70557642,6.434247494,2.408945739,2.617668539,-0.461393774
12:06.5,-4.814916134,7.736102581,6.437885284,2.122021362,1.772643745,-0.205747068
12:06.5,-3.970179558,6.693682194,6.283368587,2.320508629,1.222696066,0.564253747
12:06.5,-3.026727915,5.651149273,5.658448219,2.635132641,2.117515445,0.745827794
12:06.5,-2.853208542,5.542125225,4.28993988,2.204428345,1.925987959,0.343493044
12:06.5,-3.960466623,4.107007027,3.483448029,2.328155041,1.733606517,-0.758535206
12:06.5,-2.464119911,2.559610128,2.876437664,1.493815064,2.132869959,-0.878705263
12:06.6,-3.728433371,1.13564682,1.878009677,1.009254575,2.291380525,-1.618593568
12:06.6,-2.813835621,-0.426092893,1.398096442,0.893133163,3.33374083,-3.341574583
12:06.6,-1.575013757,-3.36230588,-1.183055401,0.449346185,4.304383814,-5.323523249
12:06.6,-0.156470314,-9.216137886,-2.808422565,2.928627014,5.129392445,-4.43339397
12:06.6,-1.410214782,-7.357285976,-4.519754887,2.713545501,4.398888528,-1.997046441
12:06.6,-0.221651167,-4.47203207,-5.450935841,2.530845553,3.108081996,-1.295077175
12:06.6,1.467117906,-3.101489305,-6.092474937,2.049089253,2.52964884,-0.782760859
12:06.6,3.075852871,-3.173335314,-6.803709507,1.676343001,2.336945653,-0.267848909
12:06.6,1.997968316,-3.810121298,-7.806640148,1.4872531,1.816165626,-0.408470869
12:06.6,1.826118112,-4.209292889,-8.234975815,1.692161024,1.361642003,-0.047753036
12:06.6,3.092226982,-3.908530712,-8.406490326,2.085834146,1.856829226,-0.17273891
12:06.6,2.678945303,-3.281980515,-8.386926651,2.145840347,1.612563223,-0.318935573
12:06.7,3.93089366,-3.836812735,-8.022834778,2.013612807,1.483426105,0.119430095
12:06.7,6.861219883,-4.049194336,-7.574635029,1.783298016,1.616802216,-0.456443578
12:06.7,5.378004074,-3.750096798,-5.865769386,1.478287578,1.037727743,-0.252610125
12:06.7,0.539178908,-4.890954971,-4.049944878,1.420239866,0.267196238,0.468756087
12:06.7,-0.341739267,-3.665370703,-2.976815939,1.138894081,0.049839258,0.426377267
12:06.7,2.037318945,-2.471127272,-1.35020566,1.123616993,-0.873879671,0.624782905
12:06.7,2.295163631,-2.045516491,0.067400515,1.242816985,-1.939447284,1.803687006
12:06.7,0.367866218,-0.408617437,1.700761914,1.088398099,-2.745357096,3.096851498
12:06.7,-0.42903623,3.127335072,3.52163291,0.79537189,-2.840162754,3.125798523
12:06.7,-2.775062799,4.829845428,4.466053486,0.798017204,-2.164309382,2.601284221
12:06.7,-2.831573248,6.57844162,5.771591663,1.223452568,-1.094216913,1.658758428
12:06.7,-3.442118645,8.213477135,6.51443243,1.935002685,0.348598644,0.22069113
12:06.8,-5.669607162,7.615885258,6.890384197,2.575319409,2.104491364,-1.009032369
12:06.8,-5.642948151,6.719860554,6.700400352,2.643610895,2.874435604,-0.957160115
12:06.8,-2.321666002,7.52692318,6.411664009,2.26772964,2.51675877,-0.776902914
12:06.8,-1.383369088,7.995029449,5.739838123,1.92494157,1.978346407,-0.575513601
12:06.8,-2.548712492,7.772280216,5.418678284,1.75666755,1.703623354,-0.267179489
12:06.8,-4.230154514,6.92463398,4.933003902,1.851700425,1.41121608,0.112392426
12:06.8,-4.364807129,6.330919743,4.186615944,1.881809413,1.633031785,0.592882335
12:06.8,-3.368734598,4.913570881,2.906135082,1.954616368,1.692648351,0.057166547
12:06.8,-2.385534525,3.211288929,1.744929194,1.420798659,1.984992564,-1.099457487
12:06.8,-2.302311897,3.057686806,1.699043989,0.402104199,2.113732755,-1.351447303
12:06.8,-1.628881097,2.143567801,0.638571203,0.807361126,2.935099542,-3.105588138
12:06.8,1.869717002,0.264480233,0.136724263,1.203464091,4.658045888,-5.999967568
12:06.9,0.954662502,-4.311036587,-2.912770033,2.593159616,4.184685767,-3.57093025
12:06.9,-0.581405163,-6.609100342,-3.67475152,3.031625807,3.576375425,-2.3103185
12:06.9,0.921957791,-6.122309685,-4.510956287,3.153108835,3.490128934,-1.529138446
12:06.9,2.516514778,-4.658627033,-4.950667858,2.60047549,2.618208826,-0.725711048
12:06.9,3.531442165,-4.220161438,-5.4132061,1.930335104,2.054076135,-0.226498425
12:06.9,3.492783308,-4.485294819,-5.754252911,1.613528363,1.573976219,-0.183204055
12:06.9,3.29933238,-4.38158226,-5.888913631,1.414825022,1.232275903,0.027065039
12:06.9,4.408337593,-4.552384377,-6.153141022,1.651728988,1.404814839,0.127774358
12:06.9,4.633769035,-4.531414509,-6.163529396,1.979863882,1.70682767,0.014843285
12:06.9,4.393237114,-4.380897522,-6.187457561,2.01641649,1.550147057,0.100594044
12:06.9,4.628979206,-4.849459171,-6.009917259,1.759875238,1.544071324,0.025163651
12:06.9,4.201260567,-5.299618244,-5.568974972,1.693715036,1.394684315,-0.046469986
12:07.0,3.043482304,-6.129536152,-4.872364521,1.310413003,0.862131357,0.253080174
12:07.0,1.791440368,-6.249607563,-4.216832638,0.977905571,0.278764188,0.580049351
12:07.0,2.414695501,-5.790991306,-3.091818094,0.809580684,-0.889932752,1.321220145
12:07.0,1.413001537,-5.481341839,0.256335288,1.053778112,-2.955957294,2.196347773
12:07.0,1.710445881,-0.097724408,3.064316273,0.907308221,-2.95864588,3.011711717
12:07.0,-3.684583426,2.575632572,5.153183937,1.044718921,-2.417756557,3.214366615
12:07.0,-4.498816013,2.765407324,5.955183983,0.965349138,-1.843862772,2.572069705
12:07.0,0.242186666,5.9482584,4.146620274,0.832999229,-0.89043951,0.935679331
12:07.0,1.132612824,7.452304363,2.214052677,1.313027918,0.079602346,0.181981698
12:07.0,-0.265147299,7.55681181,1.608738661,1.883507311,1.165445298,-0.241009995
12:07.0,-1.915203333,7.99678421,2.342152119,1.988621056,1.323797368,-0.261551261
12:07.0,-4.809511662,8.638507843,3.033262014,2.004772723,1.85571203,-0.549976528
12:07.1,-9.653348923,7.211638927,3.765053034,1.829774261,2.219422802,-0.775295675
12:07.1,-9.356860161,5.001654148,4.629711628,1.550542831,1.979858518,0.081453145
12:07.1,-6.640259266,3.99835372,5.910329819,1.589395702,1.497577012,0.197153747
12:07.1,-5.012177944,3.619601488,6.209968567,1.746182743,1.769482195,0.180025995
12:07.1,-5.014537811,3.24776268,6.026515961,1.686554343,1.585794389,0.428613484
12:07.1,-4.011041641,2.054444075,5.616883755,1.858647883,2.006831348,0.707672715
12:07.1,-3.335963249,2.137439013,4.569803715,1.332836747,2.451354027,-0.669043556
12:07.1,-2.288873672,2.065677166,3.951033354,0.971243322,3.251178145,-1.972043999
12:07.1,-0.685945809,2.165460825,2.585700512,1.48214978,5.096458316,-3.264055111
12:07.1,3.341458321,-2.678939581,-4.395997524,2.563219547,7.151038647,-5.157501765
12:07.1,0.128387436,-4.958028316,-3.609272957,2.007544637,4.109256208,-2.900198616
12:07.1,-1.241925001,-5.614063263,-4.680791378,2.316984236,3.870527864,-1.820558444
12:07.2,-0.104663797,-4.286474705,-5.861945629,2.333107382,3.459360063,-0.842482314
12:07.2,4.146178246,-3.56925416,-6.546756744,1.860676497,2.889961064,-0.050164372
12:07.2,5.497991562,-4.058732033,-7.267391682,1.609804858,2.238138855,-0.034149319
12:07.2,3.801527739,-4.339747906,-7.801581383,1.873857588,1.779816926,0.077046871
12:07.2,3.674082756,-4.211491108,-8.048108101,2.305710316,1.779551446,0.487921476
12:07.2,4.960935593,-4.078698635,-8.076292992,2.218349874,1.940010875,0.169057548
12:07.2,4.742564678,-4.151648998,-7.621767044,2.215961456,2.006432697,0.085512161
12:07.2,4.807124615,-4.399185181,-6.912355423,1.95690161,1.651543409,0.450983554
12:07.2,3.948254347,-5.00682497,-5.935443401,1.59149915,1.44568491,0.16932711
12:07.2,0.668407798,-4.810379505,-5.044167519,1.229023755,0.659576595,0.248220831
12:07.2,-0.086182348,-3.551317215,-4.351754665,0.937606573,-0.241661966,0.977844398
12:07.2,0.009089986,-2.178955793,-2.17144084,1.688762367,-1.175892293,0.96171204
12:07.3,-0.363864422,-1.526248217,-0.163156331,1.484536767,-3.106341183,1.626367614
12:07.3,0.236845225,-0.225328267,2.081569433,1.353327453,-3.44562155,1.991600782
12:07.3,-0.657510638,1.026789308,4.058537483,1.251417696,-3.28348577,1.908471912
12:07.3,-2.144096613,2.279797077,5.203181267,1.178577542,-2.083281338,1.611966558
12:07.3,-2.951270819,3.959728003,6.29160881,1.375756264,-0.776283443,1.017964356
12:07.3,-2.848664999,5.961764812,7.961092472,1.951228857,0.506388277,0.443800971
12:07.3,-2.727226019,7.290740967,9.949324608,2.64879632,1.178781241,0.402644217
12:07.3,-5.840665817,8.744195938,10.31481361,3.098110318,2.387197852,0.2641958
12:07.3,-5.697738647,6.818795204,10.02041531,3.470680863,2.673343778,0.708502114
12:07.3,2.147078276,7.136563301,8.029676437,3.169895373,2.522520661,0.787635148
12:07.3,2.622591972,8.340496063,5.739805222,2.86033766,2.257296383,0.317453384
12:07.3,-0.016090048,8.428638458,4.159338951,2.825013399,1.975914001,-0.21796602
12:07.4,-1.670593858,6.553683758,2.703124523,2.308751941,1.136988282,-0.093249798
12:07.4,-2.587072849,4.628658772,1.990446687,2.502609313,1.486187577,-0.367337376
12:07.4,-4.981650829,2.83697176,1.051669121,2.20489198,1.454297483,-1.574606635
12:07.4,-6.317543507,0.417771161,1.323787212,1.479243934,1.368803322,-1.192015955
12:07.4,-10.07518959,-0.92317003,6.865393639,0.322761536,1.978749931,-6.692997597
12:07.4,-0.466694176,-8.645234108,-1.00901711,2.183876514,6.595752358,-1.883628853
12:07.4,-8.320053101,-7.710280418,-3.087782621,2.193980634,3.432739139,-2.624011397
12:07.4,-1.644764781,-4.156533718,-4.619809151,2.738496602,2.591041803,-1.740157992
12:07.4,5.008280277,-3.8077209,-5.68402195,2.823526919,3.061968505,-1.190437704
12:07.4,5.008654594,-4.869999886,-5.634566307,2.703802466,2.62132442,-1.202999651
12:07.4,0.90863502,-4.806921482,-5.713317394,1.910235688,1.905107737,-0.684606194
12:07.4,-0.983895957,-4.384785652,-6.799464703,1.523851248,1.163772941,-0.16978997
12:07.5,1.708599687,-4.265607834,-7.475456715,1.754624784,1.428011417,-0.362539947
12:07.5,3.404572487,-4.415157795,-7.406169891,1.95227021,1.317729414,-0.153326392
12:07.5,2.637188435,-4.648784161,-7.435096264,2.107204378,1.617942512,-0.059624374
12:07.5,2.449843407,-4.205414772,-7.405623436,2.073018134,1.621693596,-0.105100632
12:07.5,3.602344513,-4.259478092,-6.904532909,1.861795127,1.507739816,-0.05154869
12:07.5,5.210227013,-4.568891525,-5.903412342,1.591761053,1.1774005,0.139330119
12:07.5,4.868917465,-5.181885719,-5.041207314,1.32747668,0.90672037,0.135976762
12:07.5,2.239723206,-4.862569809,-3.869012356,1.050449491,0.397007525,0.43807409
12:07.5,0.155869409,-3.635397673,-3.004927635,1.268797755,-0.304006934,0.871187538
12:07.5,0.336956114,-2.255121469,-1.555711985,1.635660589,-1.781146526,2.090086639
12:07.5,2.367942095,0.229889765,-0.101467662,1.489388347,-3.513155818,2.807139516
12:07.5,1.623717904,3.212122202,1.711918831,1.414164603,-3.205281556,3.038431019
12:07.6,-1.97996521,4.964828491,3.477005005,1.285889328,-2.093026042,2.642562538
12:07.6,-3.938905716,6.769691467,5.479551792,1.525687873,-0.784422755,1.449306473
12:07.6,-5.653193474,7.855586529,6.910930634,2.034587324,0.673696101,0.126172125
12:07.6,-6.782346249,7.251698971,8.068399429,2.696710169,2.024127901,-0.609103441
12:07.6,-5.646694183,7.005034447,7.620704651,2.725846529,2.841019407,-0.748986363
12:07.6,-5.527919292,7.296664238,6.820929527,2.371096492,2.487472773,-0.631061494
12:07.6,-4.946578979,7.144778252,6.938519955,2.25723362,1.904468179,-0.414112389
12:07.6,-4.037688255,6.142160892,7.150352001,2.326551471,1.766704679,0.14426291
12:07.6,-4.418263435,6.051999092,6.337510109,2.031445116,1.81087625,0.717618793
12:07.6,-3.527085543,4.644015789,5.093202591,2.277296722,1.190836906,0.949649245
12:07.6,-2.445598841,3.502147436,4.086616039,2.411015928,2.392790198,-0.400396422
12:07.6,-3.318374395,2.503161907,3.048422575,1.506438911,2.097048342,-1.152586013
12:07.7,-4.716236591,0.231621891,2.493402719,1.328670442,2.459112585,-1.264867604
12:07.7,-4.683631897,-1.552200437,2.439170837,1.365258157,4.002055645,-2.514962748
12:07.7,-3.305006981,-0.86245364,-0.093864672,1.198797882,5.32016021,-4.267483145
12:07.7,3.078602791,-3.187478781,-2.872375965,2.718818903,5.157939434,-2.136832416
12:07.7,2.276640892,-4.243402958,-4.261268139,3.063488483,4.083119929,-1.263197899
12:07.7,1.11173892,-4.521240711,-5.274154663,2.537189782,2.606490016,-0.78609319
12:07.7,2.240262985,-3.923760414,-6.065041065,2.008071095,2.180703282,-0.426390678
12:07.7,3.297433853,-3.800945044,-6.594257832,1.605328202,1.707098186,-0.217353076
12:07.7,3.28044796,-4.107094288,-7.079146385,1.511211466,1.360358477,0.04484576
12:07.7,2.947374105,-4.148254871,-6.959566116,1.693569645,1.187876999,0.201069295
12:07.7,3.206940651,-3.903838158,-6.661252499,1.884730965,1.258425534,0.238775671
12:07.7,2.871140957,-3.754714727,-6.575492382,1.823341668,1.272138059,0.122183084
12:07.8,2.915312052,-3.620254517,-6.266370296,1.764482677,1.415506065,0.114856422
12:07.8,3.23774004,-3.665300846,-5.696227551,1.71297586,1.462973341,0.015761614
12:07.8,2.518373966,-4.136275768,-5.441408634,1.529020071,1.206134256,0.074852437
12:07.8,0.776154876,-4.453795433,-4.363826275,1.222823977,0.694913715,0.187636942
12:07.8,0.237963885,-3.777501822,-3.980096102,0.86973542,0.120565623,0.407065839
12:07.8,0.390502959,-2.786170721,-3.157721758,0.801831841,-1.181155294,0.595429927
12:07.8,1.50748682,-2.52548337,-1.601330757,0.703273475,-3.687452346,2.180643853
12:07.8,2.416008711,2.147728443,1.094858885,-0.140553117,-4.125287384,2.109458975
12:07.8,-0.92767179,5.196438789,3.158145189,0.073026359,-3.36895895,2.388807319
12:07.8,-4.929191113,6.324264526,4.169291973,0.740905225,-1.729471087,1.948436245
12:07.8,-4.533174515,6.77620697,4.999703407,2.091458678,0.184595555,0.819756806
12:07.8,-3.358299971,6.415475845,5.18672514,2.678030431,1.706296526,0.251287162
12:07.9,-3.761060953,5.87616539,4.993388176,2.433086336,1.86804305,0.54047972
12:07.9,-4.752405167,5.181689739,5.489709854,2.276718229,1.85449636,0.291352808
12:07.9,-5.91359663,4.815246105,6.107613087,2.107271403,1.786582232,-0.005264461
12:07.9,-5.746756077,3.965711832,6.600691795,2.239641355,2.046382964,0.257866561
12:07.9,-4.390073776,3.278298378,6.384364605,2.133776799,1.946188569,0.549575686
12:07.9,-3.880580187,3.606168747,6.481844425,2.086124986,1.881964207,0.251089931
12:07.9,-5.44644022,3.215700865,5.379750252,1.986106873,2.167947233,-0.014255732
12:07.9,-4.917082787,1.285628557,3.898395538,1.472655714,1.818845749,-0.104492337
12:07.9,-3.324285507,0.340147763,3.586718321,1.268457472,3.370105207,-1.754096108
12:07.9,-5.837758541,-0.483992934,2.001533031,0.482046485,4.143959582,-3.169628337
12:07.9,-1.404703379,-2.994579315,-2.010601521,0.68109709,6.565683603,-4.239180237
12:07.9,1.312481284,-4.077571392,-3.701477051,2.164985955,5.522496998,-1.964896826
12:08.0,0.789221466,-3.336306095,-5.037356377,2.801085055,4.30946213,-0.718994536
12:08.0,2.343431473,-2.560738802,-5.726801395,2.657386422,3.536490858,-0.696283758
12:08.0,4.026538849,-2.898531199,-6.428566933,2.471393436,2.782183349,0.01478377
12:08.0,3.979046106,-3.588758707,-7.353824615,2.116793618,2.346925199,-0.063270926
12:08.0,3.175053596,-3.740073204,-8.25312233,1.921712019,1.78329879,-0.029771149
12:08.0,4.180131912,-3.902917385,-8.655696869,2.191154301,1.695491672,0.198977232
12:08.0,5.912114143,-4.349881172,-8.509666443,2.526177466,1.911524832,0.078435481
12:08.0,7.605973244,-5.113205433,-7.357621193,2.419484615,1.798171416,-0.093501627
12:08.0,7.304562092,-6.619171619,-6.60888195,2.351087213,1.345005307,0.006205857
12:08.0,6.838932514,-7.379324436,-5.662301064,2.049210966,1.305837363,-0.46655786
12:08.0,6.61534214,-7.093064308,-4.323493958,1.756254911,1.007538885,-0.287972379
12:08.0,4.618762016,-6.325195789,-3.624667645,1.551780939,0.710393846,0.176320076
12:08.1,1.615932465,-4.850721836,-2.65486002,1.170242548,0.235466659,0.622612357
12:08.1,0.250605494,-2.491849422,-0.324808657,1.878610253,-0.613256872,2.395342708
12:08.1,-0.701711714,0.219035789,1.279114246,1.929146647,-2.684820414,4.381456017
12:08.1,-0.408399135,3.419085741,3.439628601,1.56228447,-2.698693633,4.05511874
12:08.1,-3.641589165,5.111979961,4.717500687,1.383292317,-1.756268978,3.358227938
12:08.1,-2.43977809,6.406451702,5.500515461,1.28254652,-1.298832208,2.177682981
12:08.1,-1.473835588,8.811865807,5.577388287,2.000569522,0.008469507,0.854791787
12:08.1,-5.128818989,9.895115852,5.259870052,2.878650546,1.883915335,-0.534684688
12:08.1,-6.356785297,8.231421471,5.307752132,3.427744389,2.569065243,-0.279983878
12:08.1,-3.552852631,7.633743763,4.829126358,3.281903923,2.678945303,-0.238455951
12:08.1,-2.026328087,8.312541962,4.599062443,2.583523929,2.024105519,-0.474671066
12:08.1,-3.264573812,9.215057373,5.080265522,2.549629547,1.641896725,-0.364470005
12:08.2,-5.270288944,8.731687546,5.240621567,2.676302418,1.632857025,0.095865726
12:08.2,-3.121179819,7.12556982,4.846402645,2.783172816,1.616313815,0.023664474
12:08.2,-0.760071218,6.178570271,3.636811018,2.503710806,1.921477675,-1.061184108
12:08.2,-3.520114422,4.767051697,2.30805254,1.786967337,1.987108946,-1.577933088
12:08.2,-6.265855789,1.284298778,0.94932729,1.728904366,1.996524334,-1.54492493
12:08.2,-5.57496357,-0.772705793,0.376186192,1.747854829,3.53352803,-3.190043565
12:08.2,-4.926246166,-1.082277298,-0.925281465,1.341818392,4.566640377,-4.191483408
12:08.2,1.629296064,-1.598249674,-3.291618347,2.072930872,5.280092359,-4.042451233
12:08.2,4.906855106,-4.172370434,-4.53732872,2.348708272,5.135585189,-1.631933849
12:08.2,-1.208402514,-6.24350071,-5.728512764,2.980934858,3.571079969,-1.040188268
12:08.2,-1.556976438,-4.645747185,-6.966687202,2.541709095,3.210889637,-0.13039653
12:08.2,2.60641098,-2.838052988,-7.389615059,2.175849184,2.324991405,0.379493669
12:08.3,4.740431786,-2.415795326,-7.658974648,1.851738341,1.654125392,0.466033816
12:08.3,4.128373623,-2.936434031,-7.67600441,1.637688994,1.348712862,0.423117846
12:08.3,3.554362297,-2.978458643,-7.353311539,2.101250589,1.604094386,0.348672926
12:08.3,4.473500252,-3.31617713,-7.377136707,2.135411739,1.406567991,0.408014834
12:08.3,5.756445408,-3.339512587,-7.026681423,1.936506689,1.570311934,0.27477324
12:08.3,6.154542446,-3.859226465,-6.429415226,1.897144079,1.452226715,9.41E-05
12:08.3,5.563671112,-4.419711113,-5.397370338,1.576099932,1.109667391,0.080376178
12:08.3,2.670523643,-5.306932926,-4.951022148,1.410723507,1.183165133,-0.135334864
12:08.3,-3.559555531,-5.507711887,-5.201994419,1.29972595,0.892632008,0.003342509
12:08.3,-8.234833717,-5.3934412,-4.914953709,0.930837214,-0.426678896,0.482742511
12:08.3,-4.719338894,-3.496758461,-2.917788744,1.84521383,-0.901724696,0.103413562
12:08.3,1.603915811,-2.806287527,-2.578103065,1.466561258,-5.255297124,0.253391132
12:08.4,5.699402809,-2.997454405,0.807528853,1.50743711,-4.729677558,0.866981149
12:08.4,0.739650011,-0.842267871,3.799464464,1.721123755,-4.171866179,1.69950828
12:08.4,-0.190131113,3.423831224,5.768988609,1.311403036,-2.877789795,1.529374242
12:08.4,-1.345114589,6.459512234,6.61037159,1.901165783,-1.426337302,0.879480496
12:08.4,-1.166719079,7.616381168,7.815045357,2.678975105,0.262201965,0.591912769
12:08.4,-1.79079175,8.511510849,8.352251053,3.134482026,1.664086379,0.240626395
12:08.4,-2.014576912,9.586393356,8.76671505,2.946485817,2.446111709,0.034726381
12:08.4,-4.237673759,8.487416267,8.084758759,2.644756317,2.339847386,0.016749024
12:08.4,-5.23904562,5.584429264,7.424346447,2.693748534,2.107990026,1.100857198
12:08.4,-3.233535051,4.250277519,6.967955589,2.910177216,2.690652609,0.857994437
12:08.4,-4.945328236,4.524643421,6.380494118,2.633274421,2.419926286,-0.02870065
12:08.4,-5.3529706,4.456145287,6.072713852,2.524844974,2.176515698,-0.042842358
12:08.5,-4.376611233,2.422192574,4.464783192,2.224234045,2.058750629,0.329109162
12:08.5,-7.470716476,-0.155352235,2.469372749,1.72543323,2.673605621,-0.308414422
12:08.5,-7.722784042,-0.654988766,2.194690704,1.437129736,3.550149977,-2.691742964
12:08.5,-3.127960682,-0.129131243,1.428294063,0.02262193,4.902525961,-2.125451371
12:08.5,1.535834789,-1.852893114,-1.394779086,0.424370229,6.862716436,-3.615517825
12:08.5,1.822656631,-3.769191742,-3.947022438,1.312510669,5.836603582,-1.785599932
12:08.5,1.976362467,-3.416374445,-5.468439579,2.063235462,5.149279356,-0.356118318
12:08.5,2.461237192,-3.379613876,-6.292040825,2.426879197,4.025692523,-0.369599402
12:08.5,3.282628775,-3.233187437,-6.824397564,2.31847994,3.025551438,0.037650287
12:08.5,4.292771816,-2.990646601,-7.407221317,1.85226409,2.221673429,0.556472987
12:08.5,4.255363941,-3.154378176,-7.873460293,1.797273919,1.580718219,0.320274204
12:08.5,4.518521309,-3.22527957,-7.987978458,2.085514128,1.548243403,0.275540292
12:08.6,4.707108021,-3.849355459,-7.839068413,2.196215868,1.735331714,0.451048434
12:08.6,4.216867924,-3.990522623,-7.443871975,2.134397924,1.564314082,-0.01678896
12:08.6,3.126081467,-4.05614233,-7.201730728,2.139027655,1.561844391,-0.300166577
12:08.6,3.04121089,-4.386842251,-7.18226862,1.80658555,1.221147537,0.046626329
12:08.6,2.787834644,-4.228374481,-6.562600613,1.724887431,1.233766675,-0.1763006
12:08.6,1.383230925,-3.611148596,-5.901995659,1.488704979,0.698744178,-0.115198288
12:08.6,1.230107903,-3.387022734,-4.177167416,1.536762476,-0.018013895,0.443433985
12:08.6,1.922341466,-5.156587124,-2.430268526,1.974866271,-1.856830955,1.846898168
12:08.6,2.782365084,-2.822056293,0.247857437,1.418740511,-3.488437593,1.706188083
12:08.6,-0.26120612,-1.023412108,2.937809467,1.587900758,-3.89936018,2.697790265
12:08.6,-3.280247688,0.998927474,4.819648266,1.383652389,-3.385508657,3.061242819
12:08.6,-2.017009974,3.750897646,6.108601093,1.141917229,-2.671998799,1.80786249
12:08.7,-1.736194134,5.581840992,6.546725273,1.712437093,-0.916638404,1.01028078
12:08.7,-2.89174962,6.792084217,7.763097286,2.806650519,1.135135353,0.641337268
12:08.7,-4.421750546,7.508573532,8.109354019,3.255441368,2.530822475,0.263942599
12:08.7,-4.184938431,7.018899441,7.922752857,2.977126598,2.954645962,0.142099023
12:08.7,-3.54911685,6.807430744,8.045740128,2.69146651,2.54065758,0.166291833
12:08.7,-4.318335533,6.338418484,8.080769539,2.525690287,2.306833267,0.351352394
12:08.7,-4.672426224,5.552099705,8.053523064,2.928424194,2.800079465,0.669050336
12:08.7,-4.581212997,5.745314598,7.334247589,2.682965919,2.563259184,0.286029369
12:08.7,-3.491962194,5.047477245,6.536741257,2.43094939,2.002073646,0.107778966
12:08.7,-1.911933899,3.772869587,5.493526936,2.662808895,2.764821172,-0.225574702
12:08.7,-3.764034271,1.633332253,3.325443983,1.70406127,2.660549223,-1.523358244
12:08.7,-3.213222027,1.718145251,2.910860538,0.64354074,3.424043417,-2.347707488
12:08.8,2.836834192,-0.677005529,-4.685743809,2.863036454,6.72923708,-9.218496077
12:08.8,2.602506638,-7.945417404,-1.692061424,2.152102768,3.814528346,-4.192770414
12:08.8,-3.75049758,-7.418581009,-3.010327339,1.52006036,3.909707606,-2.573283121
12:08.8,-3.183163643,-5.624400139,-4.120548248,2.330510139,3.663164139,-1.477882773
12:08.8,1.000287175,-3.370203972,-5.356836796,2.630692691,3.255764067,-0.688848287
12:08.8,2.867581844,-2.492562294,-6.2993927,2.423568249,2.782907128,-0.321394831
12:08.8,1.703364968,-2.182603359,-7.050626278,1.795837461,1.975397527,-0.03679812
12:08.8,1.322828889,-2.218968868,-7.34548378,1.714005619,1.412473559,0.013893783
12:08.8,2.38559103,-2.201615095,-7.505097866,1.847108603,1.338338494,-0.05701226
12:08.8,2.871468544,-2.381397247,-7.4696064,1.962860405,1.434511542,-0.043201685
12:08.8,2.732031345,-2.476158381,-7.352899551,1.981838167,1.440538377,0.039652824
12:08.8,2.795989752,-2.750658989,-7.136499405,2.012470126,1.701174855,0.033119023
12:08.9,3.529149532,-2.886147261,-7.013393879,2.022850096,1.656941876,0.075807571
12:08.9,3.115756512,-3.010904074,-6.404938698,1.870902836,1.28110379,0.080163836
12:08.9,2.810830116,-3.009706974,-5.723787785,1.882465661,0.763676852,0.242692083
12:08.9,3.44720006,-3.476042271,-5.450930119,1.475767374,-0.385389805,0.475897759
12:08.9,1.721819878,-2.618556738,-3.539848089,1.160055459,-1.042333782,1.357066702
12:08.9,-0.379395425,-3.532515049,-2.554716825,1.795334637,-2.940599501,2.375203237
12:08.9,-0.472234637,-0.501531422,0.577427506,0.730267704,-4.454711795,2.419681802
12:08.9,-0.539433658,0.9854002,2.599217653,1.324463785,-4.098939896,2.375370517
12:08.9,-1.473943233,3.707925558,4.685676575,0.845558107,-2.993919015,1.955118194
12:08.9,-3.808562279,5.44901371,6.203891754,1.202301443,-1.258210659,1.284872271
12:08.9,-8.90154171,5.68761301,7.26417017,1.673497736,0.357068956,0.51078099
12:08.9,-9.866923332,3.367227316,9.398955345,2.325276852,1.701845996,0.649787068
12:09.0,-9.994462013,1.400292635,8.738549232,2.372801661,2.463626683,0.900368273
12:09.0,-8.245250702,0.596384108,7.706097603,2.475666046,1.724864304,1.044218361
12:09.0,-1.28661561,1.299620509,8.604427338,2.009312123,1.831631482,0.725302964
12:09.0,1.071311593,2.153189421,8.913361549,1.906616688,1.583593249,0.792916447
12:09.0,-0.347750068,2.965031147,8.2132864,1.878687888,2.115940809,0.805964202
12:09.0,-2.504291058,3.033732176,6.942834854,1.522636324,1.434409201,0.722189069
12:09.0,-3.656612873,2.847846746,5.909756184,1.556831986,1.029719472,0.725796089
12:09.0,-4.047405243,1.855821252,5.047917366,1.885204911,1.987413347,0.193299036
12:09.0,-4.570431709,1.593201041,3.513867617,1.628483891,2.456246793,-0.129159681
12:09.0,-2.072089911,0.197937429,2.813722849,1.732559741,4.832168818,-0.962097958
12:09.0,1.358965874,0.933993995,-0.707367241,1.527739823,6.366228759,-1.181337774
12:09.0,4.571900368,-1.267524242,-3.705243826,1.787035644,6.719311416,-3.256972268
12:09.1,5.443338871,-3.70216012,-4.282635212,2.17989397,4.507572055,-2.026323226
12:09.1,3.709488869,-3.830543995,-5.029955864,2.220430791,3.380109608,-1.420031801
12:09.1,2.822350264,-3.475489378,-5.534488678,1.976241201,2.641320229,-0.775170028
12:09.1,1.548643589,-3.488847971,-6.437505722,1.817793921,1.850058079,-0.206498593
12:09.1,2.270807266,-2.857124329,-7.128329754,1.592240642,1.533682525,0.242190331
12:09.1,4.626318455,-3.047561884,-7.109426498,1.885471329,1.540173709,0.382012665
12:09.1,5.915244102,-3.595207214,-7.012872696,2.264760524,1.752253413,0.578155518
12:09.1,6.16618824,-3.802040339,-6.713297844,2.138294697,1.387677699,0.480319083
12:09.1,5.56228447,-4.455647945,-6.099313736,1.971344054,1.648546427,0.097106874
12:09.1,4.548355579,-5.059666634,-5.594307423,1.813636482,1.429341402,0.160055935
12:09.1,4.156603336,-5.637319565,-5.052964211,1.639674187,1.289144129,0.267205447
12:09.1,3.874419212,-5.869700432,-4.598123074,1.51174432,1.107424408,0.155144602
12:09.2,2.055909634,-5.600640297,-4.146872997,1.106527328,0.501980186,0.354623213
12:09.2,1.588138461,-4.337868214,-3.435082197,1.337111652,-0.308849692,1.03758046
12:09.2,1.354919791,-4.420250893,-2.17609787,1.251777411,-2.305733323,2.06175518
12:09.2,3.09725666,-0.774313092,0.138349995,1.160297453,-3.826897502,3.356074482
12:09.2,-1.248322606,2.791055918,2.572360754,1.071067333,-3.649548113,3.78417474
12:09.2,-4.362859726,5.169830799,4.360276222,1.321212769,-2.269470572,2.617881089
12:09.2,-4.937979221,6.553067207,5.214096069,1.540398479,-0.82556954,1.253930658
12:09.2,-3.606218338,7.548197746,6.157895565,2.016232371,0.261667341,0.499677405
12:09.2,-5.078363895,8.454464912,7.50104332,2.32444191,1.49806907,-0.284605116
12:09.2,-9.196155548,7.560680389,7.929632664,2.523587465,1.933759108,-0.120558143
12:09.2,-8.900198936,4.603469849,8.123318672,2.478496134,2.027711213,0.934846818
12:09.2,-2.673428059,3.268542528,8.789666176,2.667365789,2.131332159,1.025493383
12:09.3,-1.502199292,4.19209528,8.183481216,2.656037564,2.365076363,0.424921155
12:09.3,-3.726704597,4.696960926,7.149830818,2.37969543,1.848671734,0.392886192
12:09.3,-3.857545614,4.480415344,6.547896862,2.167580366,1.46508348,0.808981687
12:09.3,-2.820557356,4.296625614,5.706300735,2.243463218,2.049715042,0.575616717
12:09.3,-1.415951014,3.883490086,4.285166264,1.895614624,2.050730109,-0.30062989
12:09.3,-3.085839272,1.858234048,2.961592436,1.698557854,2.584519863,-1.440240704
12:09.3,-4.087233067,0.519660592,1.964304209,1.485404491,3.68498987,-2.442155451
12:09.3,0.583922088,0.336357564,-0.585573554,1.801320851,5.769588202,-4.851751894
12:09.3,2.760925531,-2.804521561,-3.060854912,2.907188416,4.822713137,-2.818969622
12:09.3,-0.410294294,-4.965760231,-4.247093678,3.482143641,3.705136478,-1.391043402
12:09.3,0.705828309,-4.304364204,-5.434297562,3.187244892,3.274234533,-1.116239674
12:09.3,2.299200535,-3.803993225,-6.026283264,2.860474586,2.434230268,-0.237446338
12:09.4,3.199914694,-3.737057686,-6.845911503,2.239274234,1.834035337,0.247197747
12:09.4,4.181614399,-3.919291019,-7.116488457,1.914311022,1.512150407,0.42057851
12:09.4,4.058084488,-4.126202583,-7.042108536,1.924325339,1.162621975,0.373773396
12:09.4,3.801946878,-4.283671379,-7.293448448,2.203855038,1.485339701,0.369032979
12:09.4,3.701028585,-4.234110355,-7.726399899,2.308731556,1.643343031,0.373077214
12:09.4,5.505237103,-3.898386717,-7.615009785,2.348998487,1.991231948,0.27425921
12:09.4,7.137996197,-4.743533134,-6.697509766,2.840980887,2.710340692,-0.077690244
12:09.4,5.479390144,-5.7412467,-6.797117233,2.869259238,1.93370527,0.030603886
12:09.4,6.098581791,-6.529223919,-5.500290871,2.12037158,0.724600792,0.712409511
12:09.4,6.602686405,-6.932769299,-5.238576412,1.815387368,-0.09562403,1.479415551
12:09.4,3.571383238,-4.730916977,-1.53158319,1.035913825,-1.497095048,2.198040396
12:09.4,-1.155520201,-1.649280548,0.787192583,1.312002718,-2.260096312,2.933811724
12:09.5,-1.713715076,0.613729656,2.037383795,1.274269521,-2.722575188,3.371267349
12:09.5,-2.174932718,2.267066717,2.841203213,1.100736201,-2.474774837,3.377254039
12:09.5,-2.101925611,3.679524899,3.416823864,0.924046159,-1.899034262,2.476933181
12:09.5,-1.982706547,5.555508137,3.96428442,0.93773973,-0.962029219,1.409943871
12:09.5,-3.053524733,7.233243942,4.700470448,1.403946042,-0.200823337,0.826753996
12:09.5,-5.030827045,9.506632805,6.728803635,2.154494166,1.076596588,0.152825594
12:09.5,-8.52245903,8.772937775,7.526673317,2.889377654,2.144001544,-0.545931697
12:09.5,-5.092918873,6.986398697,7.658537865,2.903138578,2.463892043,0.181294739
12:09.5,-0.822669029,6.851323128,6.968644619,2.673945546,2.175915778,0.331048846
12:09.5,-2.216203928,7.214693546,5.930536747,2.747149387,1.820502877,-0.087513924
12:09.5,-4.950543404,7.270910263,5.382733345,2.476268336,1.706239879,-0.214948356
12:09.5,-4.989582062,6.051865101,5.126201153,2.143882245,1.160476208,0.574251682
12:09.6,-4.70349884,4.776976585,4.94371891,2.671058238,1.978090286,-0.273406863
12:09.6,-2.988764524,3.333218336,3.459736347,1.961957753,2.351463377,-1.158887848
12:09.6,-4.736469746,1.230236411,2.387791157,1.451882482,2.584881604,-1.909660993
12:09.6,-2.896694899,0.666339517,1.680166483,1.195745468,4.175127387,-2.911316268
12:09.6,0.744068027,-1.396972775,-0.580905259,1.894535661,5.399006337,-5.111956038
12:09.6,0.144432902,-3.386300564,-3.341496944,2.462912083,4.511000812,-2.719326153
12:09.6,-1.791097522,-4.886117935,-4.862144947,3.134167492,3.813726723,-1.297779839
12:09.6,-0.647560477,-4.04947567,-5.921121597,2.813621461,3.375118375,-0.670851797
12:09.6,1.318886042,-2.987636805,-6.686576843,2.451041222,2.569155514,0.006659299
12:09.6,3.181449413,-2.473042965,-7.547977448,2.052834958,1.894010067,0.251753569
12:09.6,3.667649031,-2.532928705,-8.153430939,1.86007619,1.490384638,0.263618559
12:09.6,4.875663757,-3.089720964,-8.098007202,2.217931524,1.45402962,0.408204079
12:09.7,5.484315395,-3.544905901,-8.149242401,2.328684956,1.56309849,0.447044551
12:09.7,5.684761524,-3.362851381,-7.828451633,2.41987288,1.54898867,0.255000174
12:09.7,5.880093575,-3.879475117,-7.432407379,2.163063407,1.573288843,0.218315899
12:09.7,5.853308201,-4.54902935,-6.985038757,1.783781946,1.181024045,0.369979471
12:09.7,5.322566986,-5.215522766,-5.868091583,1.414062858,0.841795743,0.500747859
12:09.7,2.748014688,-4.933964252,-4.871880531,1.103802919,0.665463984,0.438643537
12:09.7,0.529071391,-3.486397028,-3.81878829,0.78914547,0.141074896,0.641619802
12:09.7,0.776347399,-2.171727419,-2.059126854,1.104157209,-0.656755328,0.888470307
12:09.7,1.788039565,-1.652386665,-0.637955546,1.513471603,-2.140320301,1.963216424
12:09.7,1.0012784,-0.676608682,0.773730993,1.2111485,-3.118760109,2.46511972
12:09.7,0.26416871,1.073591232,2.725143671,0.977265,-3.110127449,2.683028921
12:09.7,-1.192526937,4.149326801,4.014038086,0.939781308,-2.760447502,2.493962497
12:09.8,-2.408702135,6.770487785,5.049870014,1.377227724,-1.467442572,1.768909984
12:09.8,-5.405373573,8.532233238,6.081918716,1.852313578,0.179683656,0.645564586
12:09.8,-8.032589912,7.888766289,7.734471798,2.526624978,1.844211977,-0.216137648
12:09.8,-7.012352467,6.897126675,8.362981796,2.926696599,2.676030517,0.17524749
12:09.8,-0.883940697,6.587925911,8.096928596,2.711832285,2.886750638,-0.044381261
12:09.8,-0.523513377,7.272498608,6.775481224,2.596115187,2.415995121,-0.174228013
12:09.8,-4.608592987,6.871157169,5.344611168,2.341589682,2.187702477,-0.102835596
12:09.8,-5.713347435,5.383055687,5.279425621,2.175676078,1.893613219,0.600611687
12:09.8,-4.517409325,4.071425438,5.228822708,2.50654608,2.061428368,-0.296101183
12:09.8,-5.244365692,2.814683914,4.333791256,1.815036118,1.686141491,-1.072681397
12:09.8,-6.487909317,0.835496128,3.706609964,1.219141841,1.787876725,-0.482714012
12:09.8,-6.244807243,-0.324302733,2.906334162,0.94455421,2.47037822,-1.461102977
12:09.9,-7.276274681,-1.174183726,1.991414189,0.768693268,3.108614087,-2.817066826
12:09.9,-5.760621071,-2.023683786,-1.260063052,1.306930423,5.528508842,-3.248805508
12:09.9,0.56996125,-2.975987434,-4.387974262,2.035997629,5.667847633,-0.946540415
12:09.9,1.87346673,-2.759041309,-5.679858685,2.537744462,4.870564282,-0.573149288
12:09.9,0.780849278,-3.125794411,-6.30391264,3.175893486,3.843942106,-0.463293575
12:09.9,1.909413576,-2.618607521,-6.898277283,2.64372763,2.871047556,-0.12849398
12:09.9,6.114467621,-2.569458961,-7.197217464,2.051628351,2.534540534,0.272640616
12:09.9,6.500088215,-3.059837818,-7.072390079,1.921109237,1.632764757,0.044889569
12:09.9,5.266180992,-3.89612484,-6.960865498,2.095873252,1.20349896,0.202082336
12:09.9,6.275069237,-4.496574879,-6.667770863,1.97463122,1.712379515,0.63037318
12:09.9,5.307109356,-4.84779501,-6.277833939,2.215950906,1.669277906,0.346515119
12:09.9,4.448736191,-4.914070606,-6.14129734,2.059561372,1.632951215,0.128324151
12:10.0,4.861486435,-4.905176163,-5.758487701,1.870665848,1.415456958,0.516436577
12:10.0,5.353919029,-5.163717747,-5.191936493,1.715716481,1.368646532,0.452671319
12:10.0,3.467013359,-5.110940933,-4.797446728,1.28087014,0.7377868,0.451754302
12:10.0,1.722881556,-3.762084007,-3.973845959,0.976086259,0.218220532,0.766209284
12:10.0,2.867804527,-2.17582202,-1.983178139,1.331549585,-0.77383852,1.745767996
12:10.0,1.196936727,-1.111855626,-0.586447537,0.975757599,-2.519778073,2.375689268
12:10.0,0.767776728,1.361067414,1.050970316,1.204090595,-2.497974157,2.671266019
12:10.0,-1.21350956,2.859332323,2.311041355,1.057015181,-2.695197344,2.599385977
12:10.0,-1.351864338,4.350576401,3.141762972,0.873411417,-2.076596022,2.037338054
12:10.0,-2.207419872,6.250843525,3.881593466,1.237780035,-1.122945309,1.163313746
12:10.0,-3.703101158,7.296077728,4.926821232,1.760302007,-0.072817206,0.411761582
12:10.0,-3.968555689,7.026526928,6.997171402,2.466611028,1.165598288,-0.01136142
12:10.1,-5.473583221,6.754009724,7.772675514,2.994735837,3.037401319,-0.975580931
12:10.1,-6.536926746,5.64540863,7.851408958,2.741696298,3.131584466,-0.862447321
12:10.1,-5.764119625,4.925280094,8.363935471,2.503438666,2.804338694,-0.48105818
12:10.1,-4.902797699,4.852311134,8.771751404,2.389231332,2.355093181,-0.539965987
12:10.1,-6.624392986,4.936267376,8.001127243,1.959746897,2.334185183,-0.516604096
12:10.1,-8.911848068,2.989432335,7.427444935,1.644098103,2.078709006,-0.198633984
12:10.1,-4.744634628,0.006054672,6.857239246,1.659082115,1.652008235,0.422489107
12:10.1,-1.999222994,-0.583557904,5.209207058,0.998198748,3.042798817,-0.42930712
12:10.1,-2.117682934,-0.108359158,3.428967714,0.626702785,3.45909974,-0.922137711
12:10.1,-1.222048879,-1.221745491,-0.100216247,0.805472672,5.263182133,-2.522770181
12:10.1,-0.187673762,-3.726135969,-3.40042448,1.962243438,5.483727813,-2.128873478
12:10.1,-1.409450769,-4.499368668,-5.799438,1.973327756,4.419400215,-1.408863895
12:10.2,-0.394462138,-3.902043819,-6.045562744,2.763469636,3.498030663,-0.819302574
12:10.2,-0.398475379,-3.479497433,-6.879626751,2.698253632,3.331607282,-0.780478656
12:10.2,-0.07777641,-2.499368429,-7.471461773,2.375900298,3.024591625,-0.4758645
12:10.2,0.591151595,-1.590211272,-8.034552574,1.864263795,2.212376773,-0.10768345
12:10.2,2.23788619,-1.27557528,-8.692586899,1.698881418,1.722861409,-0.158064872
12:10.2,4.790223122,-1.708381653,-8.826788902,1.841054887,1.498430371,-0.050177544
12:10.2,4.529308796,-2.562434435,-8.432495117,2.011576474,1.554539979,0.169509768
12:10.2,2.643376589,-3.107372999,-8.074151993,2.070765257,1.699091762,0.249510974
12:10.2,1.226553321,-3.520881653,-8.014397621,2.018453002,1.937454894,0.138146222
12:10.2,1.619502425,-3.204167128,-7.740203857,2.071359694,1.704199798,0.059066623
12:10.2,2.407945871,-3.184214592,-7.342480659,1.822060645,0.897519052,0.194753632
12:10.2,3.432391405,-3.107206821,-6.194725037,1.422838688,0.394363582,0.612879068
12:10.3,6.559760094,-1.705643892,-4.411911011,1.636041343,-1.152895987,0.666058861
12:10.3,7.524216175,-0.570540845,-1.972160816,1.639529884,-2.464643955,1.882898718
12:10.3,-0.296216637,1.448352933,0.624007165,1.656252444,-2.541320741,3.154605746
12:10.3,-3.608599663,2.977919102,2.79423666,1.352286875,-2.02983284,2.471448183
12:10.3,-3.375204802,3.553674221,2.958596468,1.095060408,-1.551337779,1.506815866
12:10.3,-2.3162148,3.868625402,2.895842552,1.031969428,-0.613417327,0.787605636
12:10.3,-1.937286139,5.289182186,3.659551859,1.202457964,0.21468395,0.196401894
12:10.3,-2.99314785,7.18414259,5.124339104,1.395617604,0.950160176,-0.37920329
12:10.3,-3.821304321,7.817747116,6.621568203,1.688547969,2.192954786,-0.902698398
12:10.3,-5.174749374,7.555944443,6.503566265,1.862116337,2.489563912,-1.028142035
12:10.3,-5.628834248,7.594032764,6.280972481,1.670077771,2.51021871,-0.995359898
12:10.3,-7.945433617,7.283912659,6.47018528,1.52382677,1.911047518,-0.80494988
12:10.4,-10.02296352,5.666954041,6.796417713,1.756009266,2.131123066,-0.361960351
12:10.4,-7.50696516,3.251843691,6.663838387,1.605597407,2.047025859,0.220061868
12:10.4,-4.492640018,1.801192641,5.945308685,1.228368819,1.969150126,-0.107041523
12:10.4,-5.495826721,1.426276207,5.038589954,1.051706314,2.0319646,-0.574965082
12:10.4,-5.309792995,-1.069680452,3.727828503,0.832231283,2.585105538,-0.465432122
12:10.4,-4.753506184,-1.084857464,2.510582209,1.107281268,4.190232545,-1.782361209
12:10.4,-3.745581627,-3.695231199,-1.204383254,2.056833565,5.885838687,-2.68781884
12:10.4,-2.092445374,-4.392400742,-4.848974228,1.730313718,5.169248641,-0.913276486
12:10.4,0.102380864,-4.234516144,-6.00171423,2.303014994,4.350067973,-0.351485485
12:10.4,0.129650146,-3.271827698,-7.050673008,2.714100242,3.931400597,0.093041398
12:10.4,1.870917678,-2.252202988,-8.461053848,2.528740555,3.377037942,0.06437552
12:10.4,4.553188801,-1.593824387,-9.104649544,2.426255599,2.825229287,0.173898041
12:10.5,4.80922842,-1.667665482,-9.677981377,2.282955587,2.205207944,0.196142852
12:10.5,4.01778698,-2.265779972,-9.976368904,2.254233539,1.784551322,0.352859378
12:10.5,5.145346165,-2.76848197,-9.463666916,2.26807934,1.632151961,0.596958697
12:10.5,4.206630707,-3.22351265,-9.075058937,2.286649346,1.775015473,0.369861424
12:10.5,2.669024229,-3.46201992,-8.540692329,1.995473921,1.714448366,0.399426162
12:10.5,2.615089893,-3.588050842,-7.726089478,1.817679882,1.435311943,0.46176374
12:10.5,2.751057386,-3.860183239,-6.601401329,1.540956974,1.059614807,0.40312764
12:10.5,0.500033319,-3.289831877,-5.347356319,1.177088916,0.295942068,0.637307994
12:10.5,0.966815531,-2.029297352,-3.750190258,1.269183099,-0.496254802,0.572513267
12:10.5,1.558625698,-1.003836989,-1.560668349,1.828823864,-1.862567604,1.12969756
12:10.5,0.13076131,-0.295981586,0.113353163,1.742655814,-2.938783824,1.704645362
12:10.5,-1.131927967,0.741923451,2.066846371,1.385297477,-3.101261675,1.730327403
12:10.6,-1.920973182,2.509484768,3.567506313,1.169864476,-2.693597853,1.352404103
12:10.6,-2.36106801,3.829943657,4.890881538,1.14957732,-1.669772446,1.012967467
12:10.6,-3.017906189,4.436357498,6.673661232,1.361574054,-0.779589295,0.58417812
12:10.6,-3.752001047,4.699005127,8.514060974,1.838901937,1.067648411,0.006540507
12:10.6,-4.687349319,4.321634769,8.985567093,2.425522089,2.798349418,-0.456445456
12:10.6,-4.570233345,4.350998402,8.027112007,2.342181683,3.560819834,-0.688967943
12:10.6,-3.557857752,5.171463013,7.064005375,1.780121386,2.572976112,-0.526459277
12:10.6,-3.690630913,5.702388287,6.897756577,1.520958632,1.94222492,-0.276764929
12:10.6,-4.824202538,5.512677193,7.214299202,1.415388234,1.598159671,-0.121208847
12:10.6,-6.636620522,5.415537357,7.544715405,1.31611985,1.325342655,-0.124856353
12:10.6,-5.697377682,3.724660397,8.232449532,1.56202215,0.754103124,0.491119832
12:10.6,-4.254045963,1.493900418,6.689462185,2.361946404,1.717326224,1.090530511
12:10.7,-3.934439182,-0.479479879,4.38000679,2.204145372,2.702964842,-0.219352704
12:10.7,-5.105195045,-1.007527471,3.749336481,2.019477665,3.933566064,-1.77514334
12:10.7,-5.565383911,-1.650980353,0.205880165,1.85190171,5.715160489,-3.907791056
12:10.7,0.338279068,-4.10535717,-3.997563362,2.179525137,5.851215929,-1.487007245
12:10.7,-0.540159881,-4.899427891,-5.357184887,3.140637457,4.411491692,-0.435376018
12:10.7,-0.610669911,-3.653624535,-6.731464386,3.168893754,3.657510579,-0.649601266
12:10.7,1.431015968,-2.962277174,-7.834909439,2.963238358,2.804028392,-0.04073891
12:10.7,4.824028492,-2.889347315,-8.52419281,2.651157796,2.435430169,0.302793175
12:10.7,6.679429054,-3.258586645,-8.861446381,2.480819403,1.867211521,0.164717138
12:10.7,7.93731451,-3.938745499,-8.713039398,2.430140615,1.809442401,0.251066506
12:10.7,9.493175507,-5.162583351,-8.052755356,2.602603137,1.799520999,0.415305614
12:10.7,10.84582806,-6.721847057,-6.425123692,2.622625351,1.961558357,0.091983378
12:10.8,10.24295902,-7.99590826,-4.448767185,2.297075033,1.5417898,-0.088593483
12:10.8,7.934221745,-8.502839088,-3.162766457,1.872534335,1.350676894,-0.226792037
12:10.8,4.443648815,-8.147336006,-2.630731821,1.498706162,1.528907418,-0.190719478
12:10.8,-1.943722248,-7.72062254,-4.020594597,1.418984175,1.179579198,0.160578877
12:10.8,-7.705452919,-4.958156586,-4.387878895,1.025856197,0.376629472,0.912805676
12:10.8,-3.636522532,-1.476130843,-0.500723898,2.188384205,-1.32544899,2.355533808
12:10.8,0.770480454,1.448870301,1.033522129,2.152450383,-2.898263693,2.15694271
12:10.8,-0.522323191,1.761502385,3.026085615,1.966482103,-3.199643195,2.760001928
12:10.8,-3.412635803,2.312313557,4.596272469,1.402633369,-2.253619254,2.595688216
12:10.8,-4.103247643,4.240077972,5.67355299,1.247019947,-1.77967608,1.254363906
12:10.8,-2.783124447,6.014397144,6.248369217,1.590411961,-0.610363781,0.507814318
12:10.8,-4.745697498,6.786641121,7.56445837,2.318685174,0.880918533,-0.012521058
12:10.9,-8.268722534,5.813578129,8.529009819,2.945296824,2.657729384,-0.071097195
12:10.9,-8.757266045,4.61152029,8.693325043,2.791519642,2.708201349,-0.012955427
12:10.9,-3.952507019,4.434298992,9.321982384,2.545480549,2.215804219,0.151836753
12:10.9,-0.781321168,4.697736263,8.818443298,2.153531179,2.07983762,0.412761807
12:10.9,-2.320966244,5.305737972,8.201733589,2.056060567,1.956849515,0.641121566
12:10.9,-5.033926964,3.719166756,6.755827904,2.428655624,1.248170912,0.766094446
12:10.9,-5.392601013,2.001188993,6.015650272,2.448093057,2.11945039,0.147333771
12:10.9,-4.1346488,0.655615389,4.383267403,1.605567217,2.31296891,-0.104860321
12:10.9,-3.85895586,-1.012031317,3.973065138,1.211440682,2.86598444,-0.419579715
12:10.9,-5.299983501,-1.002380371,2.663746595,0.701669395,4.231836796,-1.761548944
12:10.9,-4.143695831,-2.035802364,-1.101949811,0.927848876,6.243801177,-3.08157642
12:10.9,0.623658121,-2.68539691,-4.358250141,1.840604305,6.159275413,-2.029448979
12:11.0,1.956098795,-2.943310261,-5.535214424,2.673591852,4.825341523,-1.006932586
12:11.0,2.068847179,-2.758385658,-6.377496243,2.971473038,3.935042739,-0.904857039
12:11.0,2.568906784,-3.14460659,-7.667555809,3.17246604,3.344626725,-0.150819898
12:11.0,5.203746796,-3.958473444,-9.073070526,2.945700586,3.163351655,0.231776148
12:11.0,3.722621202,-4.615820408,-9.665231705,2.734197721,2.124878466,0.218847513
12:11.0,2.726833344,-3.795241356,-10.01471043,2.464663744,1.742402017,0.773963809
12:11.0,4.687053204,-3.732826948,-10.02169895,2.504250586,1.759974033,0.961294651
12:11.0,4.822829247,-3.895341158,-9.711395264,2.309027016,1.329539265,0.509460926
12:11.0,4.877522945,-3.803316355,-8.555314064,2.118783057,1.36335209,0.551563919
12:11.0,5.625606537,-3.665040255,-7.717535973,1.916140676,1.072468579,0.670933396
12:11.0,5.528254032,-4.129619598,-5.786468029,1.374763966,0.743980527,0.220032111
12:11.0,4.088947773,-3.808794498,-4.584152699,1.562298,0.333696723,0.230572246
12:11.1,3.845752716,-2.464268208,-3.276790857,1.519394487,-0.508508623,1.057249576
12:11.1,2.144830227,-3.081962109,-0.269301325,1.06157741,-1.871851563,1.713915527
12:11.1,0.422600627,-0.440708399,1.823519588,2.155372858,-2.028897524,2.099790573
12:11.1,-1.328584909,1.928982139,4.099866867,1.603622884,-2.641815722,2.725479364
12:11.1,-4.692468643,3.399980783,4.96568203,1.412672102,-1.647633851,2.141276807
12:11.1,-7.061336517,3.474739313,5.5978899,1.476863623,-0.797542691,1.520186551
12:11.1,-2.763716221,4.839999199,6.450942516,1.273199856,-0.665216923,0.539904647
12:11.1,0.500720322,6.288677216,7.75366497,1.541043758,-0.033765972,0.167635798
12:11.1,-3.247643948,8.032292366,9.285049438,2.148387313,1.961419217,-0.448540151
12:11.1,-9.88872242,6.208087921,8.93693924,2.452267945,2.082967907,-0.101142883
12:11.1,-5.293869019,3.603407145,10.26777458,2.688728213,2.17137444,0.488653779
12:11.1,-2.226991415,4.780448437,9.798620224,2.919703275,2.509781063,0.330952227
12:11.2,-1.59784615,5.274780273,8.713553429,2.456309248,2.119760454,0.446549952
12:11.2,-1.540995955,5.30769825,8.102117538,2.300396591,1.444134355,0.782587349
12:11.2,-2.763833046,4.659533978,6.633647442,2.470096886,1.800877154,0.686445326
12:11.2,-2.470901489,3.454093456,5.393642902,2.095203578,1.854963601,0.087951705
12:11.2,-1.338367343,1.817511201,3.868241787,1.887262285,2.329093993,-0.607980788
12:11.2,-3.913359404,0.36795342,2.73532939,1.751743853,2.990814179,-1.525910333
12:11.2,-4.079328537,1.404784679,3.960665226,1.881851673,4.185096651,-3.017936518
12:11.2,4.79747057,-2.118155003,-3.358881235,3.729248703,7.333274424,-3.604545449
12:11.2,-0.285194218,-5.023307323,-4.14306736,3.157048821,3.95886144,-1.170481399
12:11.2,-1.290584803,-4.080093384,-6.12835598,2.880738258,3.401536107,-0.906189322
12:11.2,1.208904028,-2.685450554,-7.008592129,2.659562707,2.650591969,-0.281152129
12:11.2,4.178291321,-2.421396971,-7.74339819,2.19960618,2.083002448,0.128663063
12:11.3,5.52055788,-3.362337351,-8.032646179,1.898741513,1.486933231,0.249679983
12:11.3,5.173891544,-4.038794994,-7.992306232,1.899362095,1.251681805,0.110029101
12:11.3,5.241201878,-4.53777504,-7.669962406,2.194521993,1.283970058,0.222554684
12:11.3,5.949003696,-5.254419327,-7.442228317,2.340127587,1.548061252,0.189596891
12:11.3,6.37052393,-5.721441269,-6.907725334,2.227656007,1.490425214,-0.097076535
12:11.3,7.224395752,-6.485558033,-5.69314003,2.097936273,1.413425729,-0.111572444
12:11.3,8.203716278,-7.155931473,-4.462353706,1.777871966,1.203014314,0.030675739
12:11.3,8.272501945,-6.587845325,-2.526432753,1.778602481,0.947365761,0.17281177
12:11.3,5.665214539,-6.359072685,-2.173601627,1.313812673,0.561061382,0.626701832
12:11.3,1.702090979,-4.619183064,-2.558659792,0.766164124,0.524273276,1.917209804
12:11.3,-1.805616498,-0.883072495,-1.875409961,1.032971203,-0.255004287,3.410475671
12:11.3,-3.073793888,2.740031004,-1.264843941,0.801051259,-1.490303218,4.124761939
12:11.4,-2.576479197,5.114730835,-0.083470158,0.837355375,-2.035403371,3.715304732
12:11.4,-3.666534424,7.406467438,1.382207036,1.047688246,-1.166323006,2.391470835
12:11.4,-6.212217331,9.044939041,2.869002581,1.317850411,0.204751074,0.603519283
12:11.4,-9.974561691,8.400696754,3.613174915,1.828942418,0.879724264,-0.440559477
12:11.4,-9.627509117,7.122755527,5.306722164,2.326904476,1.99142158,-0.335230708
12:11.4,-8.171510696,6.419799805,5.208489418,2.127182841,2.361554598,-0.406520903
12:11.4,-8.82356739,5.940865517,4.788777351,1.683575213,1.865905285,-0.077660799
12:11.4,-9.006198883,5.224956989,5.101573944,1.561499044,1.406802952,0.315731943
12:11.4,-6.816954613,4.367607117,5.973767281,1.597350404,1.412782073,0.609553516
12:11.4,-4.931546211,3.976532936,5.736325741,1.641198367,1.777828157,0.853708118
12:11.4,-4.204526424,3.023336887,5.016472816,1.87560153,1.295804262,0.637917608
12:11.4,-3.284803867,2.062380552,4.295148849,1.987420321,1.971072257,0.001155078
12:11.5,-3.742732525,0.827274024,3.018321514,1.447128713,2.362603664,-0.228881665
12:11.5,-3.603878975,-0.537330449,2.611216307,1.918695867,3.429396868,-1.674690019
12:11.5,-3.736464024,-0.634795249,0.597110569,1.75168556,5.23158592,-2.519208409
12:11.5,-0.33471024,-1.289295077,-2.469980955,1.54177177,5.84385854,-2.806151573
12:11.5,3.690715313,-2.342940807,-4.147621632,2.083419681,4.793938696,-1.499091201
12:11.5,3.261164427,-3.117527723,-5.152448654,2.435252547,3.62023896,-0.648826957
12:11.5,3.043354034,-3.143675089,-5.971221924,2.162944764,2.860679626,-0.35837853
12:11.5,3.630382061,-3.177868605,-6.536288738,1.723236442,1.991962433,-0.002210826
12:11.5,4.008136749,-3.561789274,-7.261597157,1.48917447,1.589559317,0.136381388
12:11.5,4.589317322,-3.766675949,-7.525789738,1.732760161,1.416182518,0.266487718
12:11.5,5.1552248,-3.918426514,-7.497818947,2.017649889,1.476303458,0.352264047
12:11.5,5.378041744,-4.078944683,-7.402291775,2.133591056,1.586677909,0.372864842
12:11.6,5.874107838,-4.529227257,-7.132992744,2.2200315,1.819798313,0.172649443
12:11.6,5.861601353,-5.086745739,-6.655120373,1.883705854,1.578142211,0.098128676
12:11.6,5.752781391,-5.635407448,-5.614212513,1.627421319,1.273829907,0.271876723
12:11.6,4.749430656,-6.433058262,-4.406387329,1.242729485,0.825742066,0.265047535
12:11.6,3.158280134,-5.495072842,-3.204715729,0.913651586,0.043540239,0.540630251
12:11.6,5.158099651,-4.211840153,-1.66747725,0.950295687,-0.774174392,1.564154625
12:11.6,0.956783116,-1.109103918,-1.481874824,2.038485348,-2.329518497,3.729775697
12:11.6,1.085814238,2.088416338,0.749291658,1.008623958,-2.86211139,4.079765677
12:11.6,-2.753552198,5.293908596,2.866238117,1.307734728,-2.051842511,3.580079287
12:11.6,-7.419892788,6.625979424,4.251992226,1.491400719,-0.693357527,1.79557234
12:11.6,-7.752282619,7.994047165,6.476030827,1.682005107,0.489289582,0.316128567
12:11.6,-5.045541763,7.64588356,7.766097069,2.140240192,1.495335758,-0.176535308
12:11.7,-4.767442703,7.445256233,7.191794872,2.402022421,2.390968911,-0.261247754
12:11.7,-7.480158329,6.563508987,6.695944786,2.345849395,1.99610427,-0.196769476
12:11.7,-6.978396416,5.465797424,6.711012363,2.117156893,1.58640933,0.620792925
12:11.7,-3.993459463,4.543476105,7.059824467,2.229664762,1.585111916,1.05694133
12:11.7,-1.542238355,4.396571159,6.908978939,2.449853927,1.868449092,0.758945346
12:11.7,-3.254876137,4.600565434,5.44673872,2.283723712,1.692944109,0.207161963
12:11.7,-2.488616705,4.155560493,4.672035694,2.076400101,1.658478141,0.181070387
12:11.7,-1.792800546,3.321711063,3.449305296,1.752534986,2.140799701,-0.604097605
12:11.7,-4.724182129,1.540270209,3.04754281,1.595773637,2.442685306,-1.282530725
12:11.7,-4.002020359,0.277777791,2.209192991,1.888568759,4.347384393,-3.082269777
12:11.7,0.018275321,-1.066467881,-1.598806858,1.585710168,6.663320839,-5.876464085
12:11.7,1.267723322,-3.88640666,-3.771048784,2.621528506,5.089140534,-1.851809114
12:11.8,-0.716207504,-4.626157761,-5.340596676,2.852222621,3.78897351,-1.287574515
12:11.8,1.731872201,-3.507193804,-5.94749403,2.186299682,2.878516376,-0.477980584
12:11.8,3.75021863,-2.991611242,-6.285856247,1.835641563,2.072862267,0.042264462
12:11.8,4.900113106,-3.241237879,-6.775117874,1.43649371,1.336184502,0.267711759
12:11.8,5.394317627,-3.831127167,-6.940543652,1.633585215,1.543453932,0.040124834
12:11.8,5.122944355,-4.416911602,-7.056291103,2.104358286,1.648267508,0.147006035
12:11.8,5.07660675,-4.784479618,-7.370371819,2.664637923,2.051868677,0.094394922
12:11.8,5.831748962,-5.148739338,-7.508198738,2.694380045,2.096406326,-0.061616063
12:11.8,6.191391945,-5.862714767,-7.034880161,2.309228837,1.6221935,0.069290698
12:11.8,6.391479969,-6.490472317,-6.15581131,1.924619853,1.435788721,0.063607544
12:11.8,5.338754177,-7.487687588,-4.406503677,1.651011765,0.889894247,0.073527478
12:11.8,1.416741252,-6.596558571,-3.74881959,1.217424631,0.000683069,0.495194986
12:11.9,2.203191519,-5.007802963,-2.19607687,0.551749527,-0.764599919,1.658126622
12:11.9,0.119011767,-2.609111309,0.872481406,1.040803552,-2.70660156,2.929355204
12:11.9,-2.739662886,0.157261848,3.203147173,1.338627875,-2.897216618,3.698154986
12:11.9,-4.94730711,2.143582582,5.088528633,1.438446343,-2.942524731,3.68844679
12:11.9,-4.619050026,4.002068043,5.628309727,1.712338924,-1.654113948,2.029711753
12:11.9,-4.007334709,5.466332436,5.579750538,2.126913786,0.152450025,0.740272924
12:11.9,-2.621662855,6.362327099,5.809886932,2.278771996,0.972057119,0.134291291
12:11.9,-2.118606806,7.106959343,6.454340458,2.405918062,1.563390519,-0.072764844
12:11.9,-3.020599604,7.806388855,6.633811474,2.569782913,2.148420736,-0.211081982
12:11.9,-5.396526814,7.165403366,6.746040821,2.517360687,2.229084998,-0.255366325
12:11.9,-4.772733688,6.198681355,7.08732748,2.682280719,2.190381765,0.185079217
12:11.9,-4.80659914,5.820426941,7.093367577,2.461197114,1.950972199,0.132993877
12:12.0,-5.204428673,4.926748276,6.933747768,2.320467085,1.661047518,0.259245336
12:12.0,-3.115227461,3.560463428,6.44617033,2.372444391,1.884772897,0.803632259
12:12.0,-3.682768583,2.732558966,4.521009445,2.236883521,2.530928373,-0.581299305
12:12.0,-4.857211113,0.939668655,3.386411905,1.394923925,2.922947168,-1.568801403
12:12.0,-2.970421791,-0.031710152,2.444188118,0.571858346,4.222254276,-1.974907883
12:12.0,-2.280848026,-1.000027537,-0.070714675,0.189654231,5.643734574,-3.701962642
12:12.0,0.675202191,-3.175840616,-3.218390703,1.261252224,6.520149648,-3.815957263
12:12.0,0.934360445,-3.722764254,-5.133542061,2.503328323,5.455595553,-0.943586111
12:12.0,0.037017919,-3.950251818,-6.30820179,3.04150784,4.039049804,-0.747776806
12:12.0,0.582778037,-2.862929821,-7.050182343,2.531138629,3.232553184,-0.080458224
12:12.0,1.633406878,-2.258168459,-8.27244091,2.265798472,2.477712095,0.191564918
12:12.0,3.943342447,-2.241638184,-9.246667862,2.155583039,1.941644967,0.183897614
12:12.1,4.880842209,-2.517538786,-9.052894592,2.393099189,1.728343427,0.124062181
12:12.1,5.168118954,-2.818537235,-8.972322464,2.614741266,1.623418868,0.190763712
12:12.1,6.127430439,-3.014143467,-8.453678131,2.51220268,1.564948291,0.194028974
12:12.1,7.405778408,-3.622268915,-7.517139435,2.531054974,1.575449497,0.156438798
12:12.1,7.824314117,-4.878047943,-6.265489578,2.05589664,1.295313478,0.06463927
12:12.1,6.643424988,-5.386553288,-4.602087021,1.709716022,0.966857791,0.022331215
12:12.1,4.741502762,-6.517957687,-3.576076984,1.531790257,0.610895693,0.052669838
12:12.1,3.232321501,-5.023432255,-2.89195776,1.418725312,-0.182861924,0.607808471
12:12.1,2.725539207,-3.536781788,-0.46559754,1.603515089,-0.67791903,1.997899652
12:12.1,-1.559919238,-2.011288881,1.594399691,1.323238492,-1.713290632,2.745329916
12:12.1,-5.184612751,0.138795197,1.953910232,1.719543278,-2.418823719,3.926275253
12:12.1,-2.446449995,2.048090458,3.432702065,0.957618237,-2.941085517,3.779253036
12:12.2,0.420637131,5.474730968,3.485331297,1.145419955,-2.355948448,2.549160391
12:12.2,-1.138084769,8.27603054,3.345630169,1.522979617,-0.543502867,1.198332652
12:12.2,-4.890467167,9.764785767,4.242740154,2.07933569,0.650929004,0.068434402
12:12.2,-7.144411564,10.2643671,6.742295742,2.621887922,2.100521445,-0.207941562
12:12.2,-7.417462826,8.776359558,7.413769245,2.848463178,2.573388223,-0.49696213
12:12.2,-7.561836243,7.182301521,6.938337326,2.806368679,2.165700316,0.280924976
12:12.2,-3.198931456,5.908034801,7.069244862,2.788747028,2.23303026,0.91271317
12:12.2,-0.830298007,6.122244835,6.730165958,2.825765677,2.125282228,0.655386508
12:12.2,-2.452301502,6.429646015,5.523421288,2.519554615,1.851326942,0.171828091
12:12.2,-3.254766941,6.136229515,4.776174545,2.328429461,1.552591145,0.140424967
12:12.2,-3.112634659,5.776679516,3.869096279,2.582119048,2.37576139,-0.621571958
12:12.2,-3.717110872,4.013946056,1.762620449,2.113297701,2.204698622,-1.046761945
12:12.3,-4.06231451,0.684023798,0.51185441,2.149045646,3.454470932,-2.84200222
12:12.3,-0.071228594,1.564166903,1.553262949,1.34772855,4.270130992,-4.584961139
12:12.3,5.365793228,-3.495338202,-3.449957371,3.371489346,5.937028289,-5.098534457
12:12.3,0.672565579,-5.079865932,-2.928040266,2.431509554,4.001064181,-2.82128033
12:12.3,1.205525517,-6.333054066,-4.574837685,3.647313416,3.148060024,-1.452031374
12:12.3,2.319935799,-5.141775131,-5.395436287,2.620432377,2.258191407,-0.761083841
12:12.3,3.216474533,-4.724602222,-5.939567566,1.961718023,1.6230582,-0.312447846
12:12.3,2.476410627,-4.84677887,-6.262094975,1.487225739,1.070022285,0.184127867
12:12.3,3.653457403,-4.652789593,-6.464417458,1.534965664,1.108575165,0.142705023
12:12.3,5.102530956,-5.024262428,-6.015330791,2.042862773,1.378963888,-0.070762694
12:12.3,5.05756712,-5.039466381,-5.673480034,2.166295826,1.448811367,0.004231453
12:12.3,5.415391922,-5.257101059,-5.608951569,2.093053281,1.682219636,-0.063954294
12:12.4,6.507801056,-5.96598053,-5.041035175,1.881835222,1.643153131,-0.243109167
12:12.4,5.237762928,-6.704023838,-4.077445984,1.770373821,1.268815517,-0.24331665
12:12.4,2.058265686,-7.339501858,-3.631242752,1.22755605,1.054672003,0.00551305
12:12.4,-2.477593422,-7.644303799,-3.622137547,0.864435136,0.382791638,0.297973968
12:12.4,-4.579463005,-5.259221554,-2.187609673,1.188078642,-0.102778971,0.956917122
12:12.4,-4.438238621,-3.970811129,-2.1012187,1.562840641,-3.630953968,2.71663861
12:12.4,4.23301506,-0.858427823,0.906953931,0.636263907,-5.537737131,2.538944975
12:12.4,0.120430999,2.789239883,3.72044611,1.146783829,-3.721093714,2.461516261
12:12.4,-4.396997452,5.932403088,5.167394638,1.092506468,-1.80482775,1.657881945
12:12.4,-3.154290915,6.59734869,5.699583054,1.591555655,-0.648974299,0.528818801
12:12.4,-0.692191482,7.057249546,6.118220329,2.287588716,0.842096418,0.35534811
12:12.4,-2.209975243,8.48294735,5.974773884,2.387818217,2.029943615,-0.202566504
12:12.5,-5.25662756,8.854222298,6.24111414,2.009672523,2.008939093,-0.647291183
12:12.5,-7.038128376,7.458030701,6.399151802,1.614780366,1.389067858,0.064223051
12:12.5,-7.257703304,4.78389883,6.312473774,1.971198812,0.701097012,1.280741811
12:12.5,-4.32849741,3.349520445,6.95337534,2.403776658,1.878203273,0.829955876
12:12.5,-4.031193256,3.37515831,6.573623657,2.0703329,1.456306636,0.365772605
12:12.5,-2.317773819,3.089959145,6.604997158,2.160428464,1.603280306,0.465919614
12:12.5,-3.494188786,2.971727848,5.270749092,2.101342142,2.069625676,0.408214331
12:12.5,-4.608262062,2.020123482,3.526138067,1.706766427,2.148793519,0.171091825
12:12.5,-3.784407616,1.338749886,2.968545675,2.013200521,3.147653818,-1.346118987
12:12.5,-4.286153793,-0.610197663,1.616583347,1.488186777,4.482116163,-2.290371396
12:12.5,-1.924172044,-1.052808523,-0.914670825,1.590999544,6.092590272,-2.4521643
12:12.5,2.696044683,-0.4178662,-3.447923899,1.47489953,5.753289402,-3.013807118
12:12.6,5.143517017,-1.207342267,-4.256020546,2.219155669,4.452774227,-1.864900619
12:12.6,4.526293278,-2.855624199,-5.043375015,2.300604463,3.155984163,-0.788301021
12:12.6,3.938902378,-3.913383722,-5.931056976,2.089472294,2.251789868,-0.515792251
12:12.6,3.496675491,-4.243884563,-6.645236015,1.852084845,1.635578394,-0.181396663
12:12.6,3.504543781,-4.385528088,-7.080399513,1.84613058,1.325905919,0.23604852
12:12.6,4.126788616,-4.354176044,-7.207177639,1.889019623,1.561193526,0.326677382
12:12.6,4.404880047,-4.471727371,-7.097234249,2.160345703,1.487956107,0.133869946
12:12.6,4.236382484,-4.661777973,-6.871882439,2.045665503,1.518268928,0.172211587
12:12.6,4.845018864,-4.945688248,-6.506789207,1.783197701,1.430786583,0.28511703
12:12.6,4.840872288,-5.340775967,-5.700222492,1.604693115,1.281567007,0.033956468
12:12.6,3.788769722,-5.607666016,-4.816519737,1.403462589,0.980426133,0.144623131
12:12.6,1.589024782,-5.274409771,-4.267938137,0.926027417,0.743991137,0.408411905
12:12.7,-0.510445595,-4.098447323,-3.436074495,0.863597453,0.21911484,0.49584613
12:12.7,-0.155486912,-2.106664419,-2.581606627,1.099536598,-0.968392074,0.950077932
12:12.7,0.69286561,-1.926783085,-1.773089767,1.202619612,-2.906528115,2.191633932
12:12.7,1.458451867,-0.809998333,0.250554353,0.501307368,-3.808092415,2.37140733
12:12.7,-0.340661079,2.252535582,1.998193622,1.038114965,-3.243276,2.17749799
12:12.7,-1.375189781,6.420989513,3.469415426,1.062308133,-2.44033438,1.699391808
12:12.7,-3.533989668,7.463093281,4.474682331,1.461713731,-1.040351689,0.759413421
12:12.7,-5.584748268,7.690564632,5.475776196,1.826201141,0.332967281,0.312847316
12:12.7,-5.666817188,8.088075638,6.85477066,2.297002792,2.035622194,-0.178260386
12:12.7,-7.309104919,6.810049057,6.735964775,2.065935969,2.365836196,-0.174061298
12:12.7,-7.348376274,4.577310562,6.67116642,1.789623618,2.006183982,0.476683497
12:12.7,-5.32658577,3.860155821,7.01890564,1.918842018,1.595133364,1.037956417
12:12.8,-3.950337648,3.814768791,6.793153286,2.005593177,1.429409206,1.011243999
12:12.8,-3.135386944,3.837596893,6.70737505,2.151899427,1.724021435,0.735552609
12:12.8,-3.776724577,3.941009283,6.090320587,2.228001505,1.688470602,0.531590164
12:12.8,-3.677444696,3.275832415,4.952174664,2.07692045,1.61199826,0.455386102
12:12.8,-2.226105928,2.574877501,3.605535746,1.898929179,2.242850006,-0.232310236
12:12.8,-4.743393421,0.96472615,2.467097759,2.077723801,2.850369215,-1.576423168
12:12.8,-5.562178135,-0.69265914,1.528699994,1.895652652,3.937485516,-2.166810565
12:12.8,-0.303850502,-0.627213299,-0.839953065,1.774924338,5.868166089,-3.336217746
12:12.8,4.522385597,-1.696605921,-3.321493626,1.291698158,5.449641645,-3.561734669
12:12.8,2.389813185,-3.657679319,-3.896574974,2.815647721,4.277912199,-1.478559211
12:12.8,0.527962446,-4.296111584,-5.824927807,2.939000309,3.062508464,-1.014481127
12:12.8,2.748742819,-3.679909229,-6.780958652,2.33723104,2.337111235,-0.31538868
12:12.9,4.855681896,-3.722677946,-7.139762878,1.799918786,1.494367778,0.219492555
12:12.9,5.202837467,-4.219316006,-7.148228168,1.540989548,1.225532234,0.290308177
12:12.9,4.731899261,-4.354114532,-7.074759483,1.763703436,1.270836651,0.052981794
12:12.9,4.333378792,-4.519779682,-7.023990154,2.053766787,1.356383622,0.078053832
12:12.9,5.267787457,-4.594162464,-6.891698837,1.826872647,1.434840068,0.201966166
12:12.9,6.271926403,-5.069925785,-5.993250847,1.852596462,1.785700463,-0.171808958
12:12.9,5.396831989,-5.744552135,-5.233820438,1.837878466,1.611884534,-0.30038327
12:12.9,3.829963923,-6.646388054,-4.690317631,1.554661155,1.163891733,0.058372825
12:12.9,0.446537703,-6.928654194,-4.225262165,1.172592461,0.507289469,0.366270714
12:12.9,-0.786746025,-3.862446547,-4.098873615,0.711492121,-0.089989305,0.928803734
12:12.9,2.108235121,-3.526009083,-2.410780907,0.665111363,-2.277680635,1.40932437
12:12.9,4.775312901,-2.022526264,-0.088353395,1.740256786,-3.294419765,2.543891534
12:13.0,1.818691015,1.403486371,1.925252676,1.227456748,-2.94103229,2.694881469
12:13.0,-3.603370667,4.423190117,3.073889256,1.149418116,-1.472668827,2.119832188
12:13.0,-6.729043007,4.596357346,4.001887798,1.251540363,-1.075137377,1.442015894
12:13.0,-1.938588738,5.629953384,4.9254179,1.400092661,-0.97203207,0.802330226
12:13.0,1.287464619,7.348297119,5.836903095,1.598231137,-0.041780531,0.268093497
12:13.0,-3.110587835,8.119738579,7.027826786,1.948674977,1.429681271,-0.130640686
12:13.0,-10.04852009,7.321533203,7.370033264,2.284719288,2.695942201,0.328854024
12:13.0,-8.075735092,4.303802967,7.55476141,2.237638891,2.797250479,0.553878963
12:13.0,-4.992270947,4.709563732,8.349104881,2.313952118,2.101925373,0.291725755
12:13.0,-0.673884571,5.444480419,8.108263016,2.230773632,2.124055326,0.464984953
12:13.0,-0.603978336,6.608659744,6.843220234,2.013256699,1.94620198,0.820281863
12:13.0,-3.297463179,6.232211113,4.979738712,2.31393373,1.699258447,0.662857801
12:13.1,-2.470281124,4.879664421,3.838737488,2.508905828,2.08058095,-0.632618874
12:13.1,-2.525552988,2.392823219,1.982608795,1.605667114,2.196339905,-1.21381034
12:13.1,-3.785101652,1.32609117,1.678869009,0.97489512,2.830742538,-2.292541899
12:13.1,1.05381453,2.480612278,1.456696868,0.952171504,4.120190263,-4.389430045
12:13.1,4.872247219,-2.762343645,-2.468167782,3.448938191,5.184077084,-4.537876911
12:13.1,-1.519605279,-4.98941803,-3.596609354,2.671189427,3.516970932,-2.241202056
12:13.1,0.703220248,-4.635716915,-4.262515545,2.594710052,3.336952746,-1.542415053
12:13.1,2.386585951,-3.57007885,-4.547688484,2.564330459,2.66499418,-0.901136369
12:13.1,3.224461794,-3.616041899,-5.18870306,2.204897761,2.139752686,-0.17147842
12:13.1,3.521686554,-4.234137535,-5.892809868,1.654643208,1.690992773,-0.146974802
12:13.1,3.985943794,-4.57126236,-6.138796806,1.385016222,1.156683028,-0.124640226
12:13.1,4.625222206,-4.708957672,-6.116204262,1.604692906,1.169209719,0.098877728
12:13.2,5.192223072,-5.126904964,-5.957077503,1.840770841,1.364742219,0.166751146
12:13.2,5.463974476,-5.324466705,-5.784934044,1.824357629,1.422766954,-0.07281661
12:13.2,5.155570507,-5.857296467,-5.215918541,1.836198628,1.396823641,-0.189040482
12:13.2,5.44236517,-6.157317638,-4.563975334,1.647624552,1.387769371,-0.059055895
12:13.2,4.599664211,-6.303988457,-3.425943375,1.396391988,0.941330463,-0.114896387
12:13.2,1.412977695,-6.302919865,-2.90644908,1.083249331,0.555416703,0.191735093
12:13.2,0.79139173,-4.282154083,-3.029234409,0.433967113,-0.114695132,1.105856203
12:13.2,1.00774157,-2.576579094,-0.833193004,0.99377507,-1.288013816,2.402795076
12:13.2,-1.149820805,0.355559826,0.252776295,0.720427096,-2.631182611,3.966360271
12:13.2,-1.175220013,3.470864534,1.912507892,0.621829033,-2.45282495,3.610379755
12:13.2,-3.511618376,5.901424885,3.05152607,0.82357204,-1.838451684,2.672639311
12:13.2,-4.057311535,7.245629787,4.261860371,1.340803027,-0.859857261,1.478544071
12:13.3,-3.225126982,8.661879539,4.897631645,1.89361006,0.166704774,0.237454087
12:13.3,-3.874037027,9.424079895,5.8247962,2.272348166,1.26575835,-0.605901957
12:13.3,-7.579854012,8.324172974,5.182757378,2.475828439,1.62701197,-0.343126297
12:13.3,-6.27556181,7.002234936,5.632743359,2.704909518,1.948209256,0.144852757
12:13.3,-2.86012888,6.28571701,5.375284672,2.332336297,1.768261254,0.205883324
12:13.3,-1.568405986,6.252766609,4.668686867,2.064302713,1.349083126,0.529896915
12:13.3,-1.899151564,6.100459576,4.548705101,2.31941855,1.352014244,0.552773833
12:13.3,-2.565906286,5.905261517,3.571485996,2.390151918,1.574826181,0.288078785
12:13.3,-3.369027138,5.059486866,2.546054125,2.122283757,1.335280716,-0.068813413
12:13.3,-3.228445292,3.245975256,1.880855918,1.957770109,1.65701437,-1.285948977
12:13.3,-6.400035381,1.338621616,1.563684821,1.623155475,1.971714199,-1.74410902
12:13.3,-6.577676296,-1.152830005,1.748788238,2.27882266,3.35559842,-3.023905382
12:13.4,-2.191359043,-1.395039797,0.272098422,2.293209493,4.536405057,-4.141584585
12:13.4,0.208735302,-3.175077915,-2.541457415,2.837431848,4.725395143,-3.245795365
12:13.4,-3.019886017,-4.444915771,-4.99907732,3.046545982,4.062754631,-1.337874189
12:13.4,-2.887816429,-3.57033658,-6.836734295,2.395377457,2.987602353,-0.453485608
12:13.4,-0.233762339,-1.991222501,-7.512975216,1.814176381,2.214330733,0.301520675
12:13.4,2.748308659,-1.282827854,-8.258980751,1.613732815,1.664835751,0.432524174
12:13.4,4.109335423,-1.572604537,-8.39179039,1.960244093,1.289192677,0.47637549
12:13.4,4.159634113,-2.059863091,-8.646270752,2.240731373,1.251923621,0.610025257
12:13.4,3.814048529,-2.249634266,-8.928159714,2.375038415,1.401919663,0.58227855
12:13.4,4.801534653,-1.987523317,-8.851352692,2.664766371,1.67262125,0.453270674
12:13.4,5.446433544,-2.451485634,-8.324411392,2.497759998,1.527192727,0.399073124
12:13.4,5.303740501,-3.34825325,-7.785701275,1.99450326,1.368948314,0.394427717
12:13.5,4.578882694,-4.044457436,-6.577944279,1.583036244,0.891943812,0.32051456
12:13.5,2.798658133,-4.313439846,-5.373369217,1.03965193,0.178892791,0.372116685
12:13.5,2.904764652,-4.19987011,-4.402199745,0.847323179,-0.872605443,1.068860538
12:13.5,3.367134094,-2.581583261,-1.261239529,0.825328887,-3.198036373,2.47906002
12:13.5,0.692385674,0.885129869,1.263222933,0.416240335,-3.691094339,2.847308017
12:13.5,-2.453945875,4.175009251,3.053308249,0.529939592,-2.750014305,2.621700514
12:13.5,-3.946254969,5.16497612,4.480696678,0.907571554,-2.069850385,2.139300019
12:13.5,-2.65526557,6.07568121,5.052662373,1.41087085,-1.111921161,1.100229919
12:13.5,-1.967570662,7.318251133,5.437908173,1.937660754,0.299268588,0.212191582
12:13.5,-4.975955963,7.624843121,5.782111645,2.174783647,1.531911597,-0.073277593
12:13.5,-7.14007473,5.652909279,5.958330631,2.303409934,1.926395878,0.128273606
12:13.5,-4.736587048,4.697850704,5.781715393,2.296612382,1.771018475,0.085122824
12:13.6,-3.045292616,5.166101933,5.51687336,2.025621727,1.481039286,0.283087671
12:13.6,-3.549237251,5.249152184,5.573018074,1.993901663,1.368953764,0.525268674
12:13.6,-4.836384773,5.040312767,5.589262962,2.147271305,1.509251356,0.446579993
12:13.6,-3.683104992,4.739549637,5.632719517,2.20910567,1.462146997,0.454160035
12:13.6,-1.791199446,3.752820015,4.72976017,2.151865423,1.516231477,0.296337664
12:13.6,-2.025976181,2.637841463,3.190022945,1.594022334,2.093220651,-0.738098055
12:13.6,-3.872332335,1.896891952,2.518476725,1.342458487,2.507655144,-1.460889414
12:13.6,-4.099060059,0.127103239,1.72916472,1.859345376,3.640076458,-2.409035657
12:13.6,-0.996721327,-0.563992918,-0.142916113,1.601287305,5.007129014,-2.605603205
12:13.6,1.52603507,-0.905953288,-2.810051918,1.388582528,5.231367409,-2.628381249
12:13.6,2.267443895,-1.543740511,-4.136772156,2.420343816,4.547535062,-1.948853523
12:13.6,1.959209204,-2.515941858,-5.55494976,2.722205937,3.588035405,-1.161474109
12:13.7,2.593460798,-2.900017977,-6.741323471,2.297313392,2.868800342,-0.542840183
12:13.7,2.794346094,-2.997256517,-7.842526436,1.902075529,2.132250845,-0.302440226
